,rt,trial_type,trial_index,time_elapsed,run_id,worker_feedback,total_bonus_amt,stimulus,button_pressed,key_press,stage,correct_response,valence,correct,i_acquisition_trial,i_block,negative_tone,positive_tone,positive_key,frequency,valence_match,tone,distance,i_generalization_trial,responses,cr_is_null,no_pos_key,key_responses
0,8185.0,instructions,0,8186,2,"{""Q0"":""It was very interesting!""}",3.04,,,None,,,,,,,,,,,,,,,,True,True,no_key
1,11532.0,html-button-response,1,20723,2,"{""Q0"":""It was very interesting!""}",3.04,"<p>Before we begin this experiment, please make sure your sound is on and un-muted. When you are ready, press the button below!</p>",0.0,None,,,,,,,,,,,,,,,,True,True,no_key
2,112151.0,instructions,2,132874,2,"{""Q0"":""It was very interesting!""}",3.04,,,None,,,,,,,,,,,,,,,,True,True,no_key
3,3699.0,audio-button-response,3,137577,2,"{""Q0"":""It was very interesting!""}",3.04,sound/500,0.0,None,,,,,,,,,,,,,,,,True,True,no_key
4,1999.0,audio-button-response,4,139578,2,"{""Q0"":""It was very interesting!""}",3.04,sound/500,0.0,None,,,,,,,,,,,,,,,,True,True,no_key
5,4254.0,audio-button-response,5,143834,2,"{""Q0"":""It was very interesting!""}",3.04,sound/500,0.0,None,,,,,,,,,,,,,,,,True,True,no_key
6,7910.0,instructions,6,151745,2,"{""Q0"":""It was very interesting!""}",3.04,,,None,,,,,,,,,,,,,,,,True,True,no_key
7,,html-keyboard-response,7,153152,2,"{""Q0"":""It was very interesting!""}",3.04,"<div style=""font-size:120%; top:20%""></div>",,None,,,,,,,,,,,,,,,,True,True,no_key
8,,audio-keyboard-response,8,155659,2,"{""Q0"":""It was very interesting!""}",3.04,sound/500,,None,acquisition,anything,neutral,True,0.0,1.0,300.0,700.0,q,500.0,,,,,,False,False,no_key
9,,html-keyboard-response,9,156775,2,"{""Q0"":""It was very interesting!""}",3.04,"<font size=""100%"">neutral! so no change in bonus.</font>",,None,,,,,,,,,,,,,,,,True,True,no_key
10,,html-keyboard-response,10,158305,2,"{""Q0"":""It was very interesting!""}",3.04,"<div style=""font-size:120%; top:20%""></div>",,None,,,,,,,,,,,,,,,,True,True,no_key
11,571.0,audio-keyboard-response,11,158874,2,"{""Q0"":""It was very interesting!""}",3.04,sound/700,,81.0,acquisition,q,positive,True,1.0,1.0,300.0,700.0,q,700.0,True,,,,,False,False,positive
12,,html-keyboard-response,12,159991,2,"{""Q0"":""It was very interesting!""}",3.04,"<font size=""100%"" weight=bold> correct! + $0.04</font>",,None,,,,,,,,,,,,,,,,True,True,no_key
13,,html-keyboard-response,13,161520,2,"{""Q0"":""It was very interesting!""}",3.04,"<div style=""font-size:120%; top:20%""></div>",,None,,,,,,,,,,,,,,,,True,True,no_key
14,,audio-keyboard-response,14,164035,2,"{""Q0"":""It was very interesting!""}",3.04,sound/700,,None,acquisition,anything,positive,True,,1.0,300.0,700.0,q,700.0,,,,,,False,False,no_key
15,,html-keyboard-response,15,165162,2,"{""Q0"":""It was very interesting!""}",3.04,"<font size=""100%"" weight=bold> correct! + $0.04</font>",,None,,,,,,,,,,,,,,,,True,True,no_key
16,,html-keyboard-response,16,166666,2,"{""Q0"":""It was very interesting!""}",3.04,"<div style=""font-size:120%; top:20%""></div>",,None,,,,,,,,,,,,,,,,True,True,no_key
17,611.0,audio-keyboard-response,17,167271,2,"{""Q0"":""It was very interesting!""}",3.04,sound/700,,81.0,acquisition,q,positive,True,2.0,1.0,300.0,700.0,q,700.0,True,,,,,False,False,positive
18,,html-keyboard-response,18,168388,2,"{""Q0"":""It was very interesting!""}",3.04,"<font size=""100%"" weight=bold> correct! + $0.04</font>",,None,,,,,,,,,,,,,,,,True,True,no_key
19,,html-keyboard-response,19,169904,2,"{""Q0"":""It was very interesting!""}",3.04,"<div style=""font-size:120%; top:20%""></div>",,None,,,,,,,,,,,,,,,,True,True,no_key
20,571.0,audio-keyboard-response,20,170477,2,"{""Q0"":""It was very interesting!""}",3.04,sound/700,,81.0,acquisition,q,positive,True,3.0,1.0,300.0,700.0,q,700.0,True,,,,,False,False,positive
21,,html-keyboard-response,21,171587,2,"{""Q0"":""It was very interesting!""}",3.04,"<font size=""100%"" weight=bold> correct! + $0.04</font>",,None,,,,,,,,,,,,,,,,True,True,no_key
22,,html-keyboard-response,22,173096,2,"{""Q0"":""It was very interesting!""}",3.04,"<div style=""font-size:120%; top:20%""></div>",,None,,,,,,,,,,,,,,,,True,True,no_key
23,552.0,audio-keyboard-response,23,173648,2,"{""Q0"":""It was very interesting!""}",3.04,sound/500,,80.0,acquisition,anything,neutral,False,4.0,1.0,300.0,700.0,q,500.0,,,,,,False,False,negative
24,,html-keyboard-response,24,174757,2,"{""Q0"":""It was very interesting!""}",3.04,"<font size=""100%"">neutral! so no change in bonus.</font>",,None,,,,,,,,,,,,,,,,True,True,no_key
25,,html-keyboard-response,25,176279,2,"{""Q0"":""It was very interesting!""}",3.04,"<div style=""font-size:120%; top:20%""></div>",,None,,,,,,,,,,,,,,,,True,True,no_key
26,,audio-keyboard-response,26,178793,2,"{""Q0"":""It was very interesting!""}",3.04,sound/300,,None,acquisition,p,negative,False,5.0,1.0,300.0,700.0,q,300.0,,,,,,False,False,no_key
27,,html-keyboard-response,27,179911,2,"{""Q0"":""It was very interesting!""}",3.04,"<font size=""100%"" weight=bold> incorrect! - $0.04</font>",,None,,,,,,,,,,,,,,,,True,True,no_key
28,,html-keyboard-response,28,181418,2,"{""Q0"":""It was very interesting!""}",3.04,"<div style=""font-size:120%; top:20%""></div>",,None,,,,,,,,,,,,,,,,True,True,no_key
29,701.0,audio-keyboard-response,29,182125,2,"{""Q0"":""It was very interesting!""}",3.04,sound/300,,80.0,acquisition,p,negative,True,6.0,1.0,300.0,700.0,q,300.0,True,,,,,False,False,negative
30,,html-keyboard-response,30,183240,2,"{""Q0"":""It was very interesting!""}",3.04,"<font size=""100%"" weight=bold> correct! - $0.00 </font>",,None,,,,,,,,,,,,,,,,True,True,no_key
31,,html-keyboard-response,31,184747,2,"{""Q0"":""It was very interesting!""}",3.04,"<div style=""font-size:120%; top:20%""></div>",,None,,,,,,,,,,,,,,,,True,True,no_key
32,571.0,audio-keyboard-response,32,185311,2,"{""Q0"":""It was very interesting!""}",3.04,sound/300,,80.0,acquisition,p,negative,True,7.0,1.0,300.0,700.0,q,300.0,True,,,,,False,False,negative
33,,html-keyboard-response,33,186420,2,"{""Q0"":""It was very interesting!""}",3.04,"<font size=""100%"" weight=bold> correct! - $0.00 </font>",,None,,,,,,,,,,,,,,,,True,True,no_key
34,,html-keyboard-response,34,187927,2,"{""Q0"":""It was very interesting!""}",3.04,"<div style=""font-size:120%; top:20%""></div>",,None,,,,,,,,,,,,,,,,True,True,no_key
35,541.0,audio-keyboard-response,35,188477,2,"{""Q0"":""It was very interesting!""}",3.04,sound/500,,81.0,acquisition,anything,neutral,False,8.0,1.0,300.0,700.0,q,500.0,,,,,,False,False,positive
36,,html-keyboard-response,36,189600,2,"{""Q0"":""It was very interesting!""}",3.04,"<font size=""100%"">neutral! so no change in bonus.</font>",,None,,,,,,,,,,,,,,,,True,True,no_key
37,,html-keyboard-response,37,191107,2,"{""Q0"":""It was very interesting!""}",3.04,"<div style=""font-size:120%; top:20%""></div>",,None,,,,,,,,,,,,,,,,True,True,no_key
38,581.0,audio-keyboard-response,38,193617,2,"{""Q0"":""It was very interesting!""}",3.04,sound/300,,80.0,acquisition,anything,negative,False,,1.0,300.0,700.0,q,300.0,,,,,,False,False,negative
39,,html-keyboard-response,39,194729,2,"{""Q0"":""It was very interesting!""}",3.04,"<font size=""100%"" weight=bold> incorrect! - $0.04</font>",,None,,,,,,,,,,,,,,,,True,True,no_key
40,,html-keyboard-response,40,196249,2,"{""Q0"":""It was very interesting!""}",3.04,"<div style=""font-size:120%; top:20%""></div>",,None,,,,,,,,,,,,,,,,True,True,no_key
41,701.0,audio-keyboard-response,41,196956,2,"{""Q0"":""It was very interesting!""}",3.04,sound/700,,81.0,acquisition,q,positive,True,9.0,1.0,300.0,700.0,q,700.0,True,,,,,False,False,positive
42,,html-keyboard-response,42,198059,2,"{""Q0"":""It was very interesting!""}",3.04,"<font size=""100%"" weight=bold> correct! + $0.04</font>",,None,,,,,,,,,,,,,,,,True,True,no_key
43,,html-keyboard-response,43,199581,2,"{""Q0"":""It was very interesting!""}",3.04,"<div style=""font-size:120%; top:20%""></div>",,None,,,,,,,,,,,,,,,,True,True,no_key
44,629.0,audio-keyboard-response,44,200210,2,"{""Q0"":""It was very interesting!""}",3.04,sound/700,,81.0,acquisition,q,positive,True,10.0,1.0,300.0,700.0,q,700.0,True,,,,,False,False,positive
45,,html-keyboard-response,45,201319,2,"{""Q0"":""It was very interesting!""}",3.04,"<font size=""100%"" weight=bold> correct! + $0.04</font>",,None,,,,,,,,,,,,,,,,True,True,no_key
46,,html-keyboard-response,46,202830,2,"{""Q0"":""It was very interesting!""}",3.04,"<div style=""font-size:120%; top:20%""></div>",,None,,,,,,,,,,,,,,,,True,True,no_key
47,491.0,audio-keyboard-response,47,203326,2,"{""Q0"":""It was very interesting!""}",3.04,sound/300,,80.0,acquisition,p,negative,True,11.0,1.0,300.0,700.0,q,300.0,True,,,,,False,False,negative
48,,html-keyboard-response,48,204431,2,"{""Q0"":""It was very interesting!""}",3.04,"<font size=""100%"" weight=bold> correct! - $0.00 </font>",,None,,,,,,,,,,,,,,,,True,True,no_key
49,,html-keyboard-response,49,205949,2,"{""Q0"":""It was very interesting!""}",3.04,"<div style=""font-size:120%; top:20%""></div>",,None,,,,,,,,,,,,,,,,True,True,no_key
50,539.0,audio-keyboard-response,50,206499,2,"{""Q0"":""It was very interesting!""}",3.04,sound/300,,80.0,acquisition,p,negative,True,12.0,1.0,300.0,700.0,q,300.0,True,,,,,False,False,negative
51,,html-keyboard-response,51,207613,2,"{""Q0"":""It was very interesting!""}",3.04,"<font size=""100%"" weight=bold> correct! - $0.00 </font>",,None,,,,,,,,,,,,,,,,True,True,no_key
52,,html-keyboard-response,52,209132,2,"{""Q0"":""It was very interesting!""}",3.04,"<div style=""font-size:120%; top:20%""></div>",,None,,,,,,,,,,,,,,,,True,True,no_key
53,672.0,audio-keyboard-response,53,209809,2,"{""Q0"":""It was very interesting!""}",3.04,sound/500,,81.0,acquisition,anything,neutral,False,13.0,1.0,300.0,700.0,q,500.0,,,,,,False,False,positive
54,,html-keyboard-response,54,210930,2,"{""Q0"":""It was very interesting!""}",3.04,"<font size=""100%"">neutral! so no change in bonus.</font>",,None,,,,,,,,,,,,,,,,True,True,no_key
55,,html-keyboard-response,55,212436,2,"{""Q0"":""It was very interesting!""}",3.04,"<div style=""font-size:120%; top:20%""></div>",,None,,,,,,,,,,,,,,,,True,True,no_key
56,,audio-keyboard-response,56,214952,2,"{""Q0"":""It was very interesting!""}",3.04,sound/700,,None,acquisition,anything,positive,True,,1.0,300.0,700.0,q,700.0,,,,,,False,False,no_key
57,,html-keyboard-response,57,216062,2,"{""Q0"":""It was very interesting!""}",3.04,"<font size=""100%"" weight=bold> correct! + $0.04</font>",,None,,,,,,,,,,,,,,,,True,True,no_key
58,,html-keyboard-response,58,217583,2,"{""Q0"":""It was very interesting!""}",3.04,"<div style=""font-size:120%; top:20%""></div>",,None,,,,,,,,,,,,,,,,True,True,no_key
59,581.0,audio-keyboard-response,59,218161,2,"{""Q0"":""It was very interesting!""}",3.04,sound/300,,80.0,acquisition,p,negative,True,14.0,1.0,300.0,700.0,q,300.0,True,,,,,False,False,negative
60,,html-keyboard-response,60,219275,2,"{""Q0"":""It was very interesting!""}",3.04,"<font size=""100%"" weight=bold> correct! - $0.00 </font>",,None,,,,,,,,,,,,,,,,True,True,no_key
61,,html-keyboard-response,61,220797,2,"{""Q0"":""It was very interesting!""}",3.04,"<div style=""font-size:120%; top:20%""></div>",,None,,,,,,,,,,,,,,,,True,True,no_key
62,,audio-keyboard-response,62,223304,2,"{""Q0"":""It was very interesting!""}",3.04,sound/500,,None,acquisition,anything,neutral,True,15.0,1.0,300.0,700.0,q,500.0,,,,,,False,False,no_key
63,,html-keyboard-response,63,224418,2,"{""Q0"":""It was very interesting!""}",3.04,"<font size=""100%"">neutral! so no change in bonus.</font>",,None,,,,,,,,,,,,,,,,True,True,no_key
64,,html-keyboard-response,64,225936,2,"{""Q0"":""It was very interesting!""}",3.04,"<div style=""font-size:120%; top:20%""></div>",,None,,,,,,,,,,,,,,,,True,True,no_key
65,,audio-keyboard-response,65,228447,2,"{""Q0"":""It was very interesting!""}",3.04,sound/500,,None,acquisition,anything,neutral,True,16.0,1.0,300.0,700.0,q,500.0,,,,,,False,False,no_key
66,,html-keyboard-response,66,229572,2,"{""Q0"":""It was very interesting!""}",3.04,"<font size=""100%"">neutral! so no change in bonus.</font>",,None,,,,,,,,,,,,,,,,True,True,no_key
67,,html-keyboard-response,67,231097,2,"{""Q0"":""It was very interesting!""}",3.04,"<div style=""font-size:120%; top:20%""></div>",,None,,,,,,,,,,,,,,,,True,True,no_key
68,560.0,audio-keyboard-response,68,233604,2,"{""Q0"":""It was very interesting!""}",3.04,sound/300,,80.0,acquisition,anything,negative,False,,1.0,300.0,700.0,q,300.0,,,,,,False,False,negative
69,,html-keyboard-response,69,234716,2,"{""Q0"":""It was very interesting!""}",3.04,"<font size=""100%"" weight=bold> incorrect! - $0.04</font>",,None,,,,,,,,,,,,,,,,True,True,no_key
70,,html-keyboard-response,70,236235,2,"{""Q0"":""It was very interesting!""}",3.04,"<div style=""font-size:120%; top:20%""></div>",,None,,,,,,,,,,,,,,,,True,True,no_key
71,571.0,audio-keyboard-response,71,236801,2,"{""Q0"":""It was very interesting!""}",3.04,sound/700,,81.0,acquisition,q,positive,True,17.0,1.0,300.0,700.0,q,700.0,True,,,,,False,False,positive
72,,html-keyboard-response,72,237917,2,"{""Q0"":""It was very interesting!""}",3.04,"<font size=""100%"" weight=bold> correct! + $0.04</font>",,None,,,,,,,,,,,,,,,,True,True,no_key
73,4218.0,html-keyboard-response,73,242640,2,"{""Q0"":""It was very interesting!""}",3.04,The total bonus amount of bonus you earned in this last period was $0.20.<br> Press any key to continue to the next step.,,32.0,,,,,,,,,,,,,,,,True,True,neutral
74,51703.0,instructions,74,294345,2,"{""Q0"":""It was very interesting!""}",3.04,,,None,,,,,,,,,,,,,,,,True,True,no_key
75,,html-keyboard-response,75,295251,2,"{""Q0"":""It was very interesting!""}",3.04,,,None,,,,,,,,,,,,,,,,True,True,no_key
76,861.0,audio-keyboard-response,76,296662,2,"{""Q0"":""It was very interesting!""}",3.04,sound/400,,81.0,generalization,space,negative,False,,1.0,300.0,700.0,q,,False,400.0,100.0,0.0,,False,False,positive
77,,html-keyboard-response,77,297669,2,"{""Q0"":""It was very interesting!""}",3.04,,,None,,,,,,,,,,,,,,,,True,True,no_key
78,,html-keyboard-response,78,298171,2,"{""Q0"":""It was very interesting!""}",3.04,,,None,,,,,,,,,,,,,,,,True,True,no_key
79,749.0,audio-keyboard-response,79,298928,2,"{""Q0"":""It was very interesting!""}",3.04,sound/880,,81.0,generalization,space,control,False,,1.0,300.0,700.0,q,,,,,1.0,,False,False,positive
80,,html-keyboard-response,80,299935,2,"{""Q0"":""It was very interesting!""}",3.04,,,None,,,,,,,,,,,,,,,,True,True,no_key
81,,html-keyboard-response,81,300448,2,"{""Q0"":""It was very interesting!""}",3.04,,,None,,,,,,,,,,,,,,,,True,True,no_key
82,651.0,audio-keyboard-response,82,301109,2,"{""Q0"":""It was very interesting!""}",3.04,sound/920,,32.0,generalization,space,control,True,,1.0,300.0,700.0,q,,,,,2.0,,False,False,neutral
83,,html-keyboard-response,83,302123,2,"{""Q0"":""It was very interesting!""}",3.04,,,None,,,,,,,,,,,,,,,,True,True,no_key
84,,html-keyboard-response,84,302638,2,"{""Q0"":""It was very interesting!""}",3.04,,,None,,,,,,,,,,,,,,,,True,True,no_key
85,640.0,audio-keyboard-response,85,303289,2,"{""Q0"":""It was very interesting!""}",3.04,sound/240,,80.0,generalization,space,negative,False,,1.0,300.0,700.0,q,,True,240.0,-60.0,3.0,,False,False,negative
86,,html-keyboard-response,86,304297,2,"{""Q0"":""It was very interesting!""}",3.04,,,None,,,,,,,,,,,,,,,,True,True,no_key
87,,html-keyboard-response,87,304811,2,"{""Q0"":""It was very interesting!""}",3.04,,,None,,,,,,,,,,,,,,,,True,True,no_key
88,661.0,audio-keyboard-response,88,305472,2,"{""Q0"":""It was very interesting!""}",3.04,sound/695,,81.0,generalization,space,positive,False,,1.0,300.0,700.0,q,,True,695.0,-5.0,4.0,,False,False,positive
89,,html-keyboard-response,89,306486,2,"{""Q0"":""It was very interesting!""}",3.04,,,None,,,,,,,,,,,,,,,,True,True,no_key
90,,html-keyboard-response,90,307003,2,"{""Q0"":""It was very interesting!""}",3.04,,,None,,,,,,,,,,,,,,,,True,True,no_key
91,800.0,audio-keyboard-response,91,307803,2,"{""Q0"":""It was very interesting!""}",3.04,sound/640,,32.0,generalization,space,positive,True,,1.0,300.0,700.0,q,,False,640.0,-60.0,5.0,,False,False,neutral
92,,html-keyboard-response,92,308820,2,"{""Q0"":""It was very interesting!""}",3.04,,,None,,,,,,,,,,,,,,,,True,True,no_key
93,,html-keyboard-response,93,309335,2,"{""Q0"":""It was very interesting!""}",3.04,,,None,,,,,,,,,,,,,,,,True,True,no_key
94,891.0,audio-keyboard-response,94,310228,2,"{""Q0"":""It was very interesting!""}",3.04,sound/300,,80.0,generalization,p,negative,True,,1.0,300.0,700.0,q,,True,,0.0,6.0,,False,False,negative
95,,html-keyboard-response,95,311242,2,"{""Q0"":""It was very interesting!""}",3.04,,,None,,,,,,,,,,,,,,,,True,True,no_key
96,,html-keyboard-response,96,311757,2,"{""Q0"":""It was very interesting!""}",3.04,,,None,,,,,,,,,,,,,,,,True,True,no_key
97,768.0,audio-keyboard-response,97,312528,2,"{""Q0"":""It was very interesting!""}",3.04,sound/700,,81.0,generalization,q,positive,True,,1.0,300.0,700.0,q,,True,,0.0,7.0,,False,False,positive
98,,html-keyboard-response,98,313542,2,"{""Q0"":""It was very interesting!""}",3.04,,,None,,,,,,,,,,,,,,,,True,True,no_key
99,,html-keyboard-response,99,314046,2,"{""Q0"":""It was very interesting!""}",3.04,,,None,,,,,,,,,,,,,,,,True,True,no_key
100,821.0,audio-keyboard-response,100,314862,2,"{""Q0"":""It was very interesting!""}",3.04,sound/280,,80.0,generalization,space,negative,False,,1.0,300.0,700.0,q,,True,280.0,-20.0,8.0,,False,False,negative
101,,html-keyboard-response,101,315878,2,"{""Q0"":""It was very interesting!""}",3.04,,,None,,,,,,,,,,,,,,,,True,True,no_key
102,,html-keyboard-response,102,316382,2,"{""Q0"":""It was very interesting!""}",3.04,,,None,,,,,,,,,,,,,,,,True,True,no_key
103,571.0,audio-keyboard-response,103,316957,2,"{""Q0"":""It was very interesting!""}",3.04,sound/305,,80.0,generalization,space,negative,False,,1.0,300.0,700.0,q,,True,305.0,5.0,9.0,,False,False,negative
104,,html-keyboard-response,104,317963,2,"{""Q0"":""It was very interesting!""}",3.04,,,None,,,,,,,,,,,,,,,,True,True,no_key
105,,html-keyboard-response,105,318480,2,"{""Q0"":""It was very interesting!""}",3.04,,,None,,,,,,,,,,,,,,,,True,True,no_key
106,461.0,audio-keyboard-response,106,318950,2,"{""Q0"":""It was very interesting!""}",3.04,sound/300,,80.0,generalization,p,negative,True,,1.0,300.0,700.0,q,,True,,0.0,10.0,,False,False,negative
107,,html-keyboard-response,107,319967,2,"{""Q0"":""It was very interesting!""}",3.04,,,None,,,,,,,,,,,,,,,,True,True,no_key
108,,html-keyboard-response,108,320481,2,"{""Q0"":""It was very interesting!""}",3.04,,,None,,,,,,,,,,,,,,,,True,True,no_key
109,571.0,audio-keyboard-response,109,321060,2,"{""Q0"":""It was very interesting!""}",3.04,sound/705,,81.0,generalization,space,positive,False,,1.0,300.0,700.0,q,,True,705.0,5.0,11.0,,False,False,positive
110,,html-keyboard-response,110,322066,2,"{""Q0"":""It was very interesting!""}",3.04,,,None,,,,,,,,,,,,,,,,True,True,no_key
111,,html-keyboard-response,111,322571,2,"{""Q0"":""It was very interesting!""}",3.04,,,None,,,,,,,,,,,,,,,,True,True,no_key
112,800.0,audio-keyboard-response,112,323381,2,"{""Q0"":""It was very interesting!""}",3.04,sound/500,,32.0,generalization,space,control,True,,1.0,300.0,700.0,q,,,,,12.0,,False,False,neutral
113,,html-keyboard-response,113,324391,2,"{""Q0"":""It was very interesting!""}",3.04,,,None,,,,,,,,,,,,,,,,True,True,no_key
114,,html-keyboard-response,114,324907,2,"{""Q0"":""It was very interesting!""}",3.04,,,None,,,,,,,,,,,,,,,,True,True,no_key
115,669.0,audio-keyboard-response,115,325573,2,"{""Q0"":""It was very interesting!""}",3.04,sound/900,,81.0,generalization,space,control,False,,1.0,300.0,700.0,q,,,,,13.0,,False,False,positive
116,,html-keyboard-response,116,326584,2,"{""Q0"":""It was very interesting!""}",3.04,,,None,,,,,,,,,,,,,,,,True,True,no_key
117,,html-keyboard-response,117,327102,2,"{""Q0"":""It was very interesting!""}",3.04,,,None,,,,,,,,,,,,,,,,True,True,no_key
118,840.0,audio-keyboard-response,118,327942,2,"{""Q0"":""It was very interesting!""}",3.04,sound/360,,80.0,generalization,space,negative,False,,1.0,300.0,700.0,q,,True,360.0,60.0,14.0,,False,False,negative
119,,html-keyboard-response,119,328958,2,"{""Q0"":""It was very interesting!""}",3.04,,,None,,,,,,,,,,,,,,,,True,True,no_key
120,,html-keyboard-response,120,329472,2,"{""Q0"":""It was very interesting!""}",3.04,,,None,,,,,,,,,,,,,,,,True,True,no_key
121,859.0,audio-keyboard-response,121,330337,2,"{""Q0"":""It was very interesting!""}",3.04,sound/700,,81.0,generalization,q,positive,True,,1.0,300.0,700.0,q,,True,,0.0,15.0,,False,False,positive
122,,html-keyboard-response,122,331342,2,"{""Q0"":""It was very interesting!""}",3.04,,,None,,,,,,,,,,,,,,,,True,True,no_key
123,,html-keyboard-response,123,331844,2,"{""Q0"":""It was very interesting!""}",3.04,,,None,,,,,,,,,,,,,,,,True,True,no_key
124,1032.0,audio-keyboard-response,124,332875,2,"{""Q0"":""It was very interesting!""}",3.04,sound/680,,80.0,generalization,space,positive,False,,1.0,300.0,700.0,q,,False,680.0,-20.0,16.0,,False,False,negative
125,,html-keyboard-response,125,333890,2,"{""Q0"":""It was very interesting!""}",3.04,,,None,,,,,,,,,,,,,,,,True,True,no_key
126,,html-keyboard-response,126,334407,2,"{""Q0"":""It was very interesting!""}",3.04,,,None,,,,,,,,,,,,,,,,True,True,no_key
127,789.0,audio-keyboard-response,127,335202,2,"{""Q0"":""It was very interesting!""}",3.04,sound/300,,80.0,generalization,p,negative,True,,1.0,300.0,700.0,q,,True,,0.0,17.0,,False,False,negative
128,,html-keyboard-response,128,336218,2,"{""Q0"":""It was very interesting!""}",3.04,,,None,,,,,,,,,,,,,,,,True,True,no_key
129,,html-keyboard-response,129,336735,2,"{""Q0"":""It was very interesting!""}",3.04,,,None,,,,,,,,,,,,,,,,True,True,no_key
130,1021.0,audio-keyboard-response,130,337758,2,"{""Q0"":""It was very interesting!""}",3.04,sound/600,,81.0,generalization,space,positive,False,,1.0,300.0,700.0,q,,True,600.0,-100.0,18.0,,False,False,positive
131,,html-keyboard-response,131,338763,2,"{""Q0"":""It was very interesting!""}",3.04,,,None,,,,,,,,,,,,,,,,True,True,no_key
132,,html-keyboard-response,132,339281,2,"{""Q0"":""It was very interesting!""}",3.04,,,None,,,,,,,,,,,,,,,,True,True,no_key
133,691.0,audio-keyboard-response,133,339981,2,"{""Q0"":""It was very interesting!""}",3.04,sound/700,,81.0,generalization,q,positive,True,,1.0,300.0,700.0,q,,True,,0.0,19.0,,False,False,positive
134,,html-keyboard-response,134,341000,2,"{""Q0"":""It was very interesting!""}",3.04,,,None,,,,,,,,,,,,,,,,True,True,no_key
135,,html-keyboard-response,135,341503,2,"{""Q0"":""It was very interesting!""}",3.04,,,None,,,,,,,,,,,,,,,,True,True,no_key
136,749.0,audio-keyboard-response,136,342255,2,"{""Q0"":""It was very interesting!""}",3.04,sound/200,,80.0,generalization,space,negative,False,,1.0,300.0,700.0,q,,True,200.0,-100.0,20.0,,False,False,negative
137,,html-keyboard-response,137,343275,2,"{""Q0"":""It was very interesting!""}",3.04,,,None,,,,,,,,,,,,,,,,True,True,no_key
138,,html-keyboard-response,138,343794,2,"{""Q0"":""It was very interesting!""}",3.04,,,None,,,,,,,,,,,,,,,,True,True,no_key
139,688.0,audio-keyboard-response,139,344486,2,"{""Q0"":""It was very interesting!""}",3.04,sound/700,,81.0,generalization,q,positive,True,,1.0,300.0,700.0,q,,True,,0.0,21.0,,False,False,positive
140,,html-keyboard-response,140,345495,2,"{""Q0"":""It was very interesting!""}",3.04,,,None,,,,,,,,,,,,,,,,True,True,no_key
141,,html-keyboard-response,141,346010,2,"{""Q0"":""It was very interesting!""}",3.04,,,None,,,,,,,,,,,,,,,,True,True,no_key
142,960.0,audio-keyboard-response,142,346979,2,"{""Q0"":""It was very interesting!""}",3.04,sound/800,,81.0,generalization,space,positive,False,,1.0,300.0,700.0,q,,True,800.0,100.0,22.0,,False,False,positive
143,,html-keyboard-response,143,347993,2,"{""Q0"":""It was very interesting!""}",3.04,,,None,,,,,,,,,,,,,,,,True,True,no_key
144,,html-keyboard-response,144,348497,2,"{""Q0"":""It was very interesting!""}",3.04,,,None,,,,,,,,,,,,,,,,True,True,no_key
145,1141.0,audio-keyboard-response,145,349640,2,"{""Q0"":""It was very interesting!""}",3.04,sound/320,,32.0,generalization,space,negative,True,,1.0,300.0,700.0,q,,False,320.0,20.0,23.0,,False,False,neutral
146,,html-keyboard-response,146,350655,2,"{""Q0"":""It was very interesting!""}",3.04,,,None,,,,,,,,,,,,,,,,True,True,no_key
147,,html-keyboard-response,147,351171,2,"{""Q0"":""It was very interesting!""}",3.04,,,None,,,,,,,,,,,,,,,,True,True,no_key
148,941.0,audio-keyboard-response,148,352120,2,"{""Q0"":""It was very interesting!""}",3.04,sound/295,,32.0,generalization,space,negative,True,,1.0,300.0,700.0,q,,False,295.0,-5.0,24.0,,False,False,neutral
149,,html-keyboard-response,149,353136,2,"{""Q0"":""It was very interesting!""}",3.04,,,None,,,,,,,,,,,,,,,,True,True,no_key
150,,html-keyboard-response,150,353647,2,"{""Q0"":""It was very interesting!""}",3.04,,,None,,,,,,,,,,,,,,,,True,True,no_key
151,771.0,audio-keyboard-response,151,354421,2,"{""Q0"":""It was very interesting!""}",3.04,sound/720,,81.0,generalization,space,positive,False,,1.0,300.0,700.0,q,,True,720.0,20.0,25.0,,False,False,positive
152,,html-keyboard-response,152,355432,2,"{""Q0"":""It was very interesting!""}",3.04,,,None,,,,,,,,,,,,,,,,True,True,no_key
153,,html-keyboard-response,153,355951,2,"{""Q0"":""It was very interesting!""}",3.04,,,None,,,,,,,,,,,,,,,,True,True,no_key
154,859.0,audio-keyboard-response,154,356812,2,"{""Q0"":""It was very interesting!""}",3.04,sound/480,,32.0,generalization,space,control,True,,1.0,300.0,700.0,q,,,,,26.0,,False,False,neutral
155,,html-keyboard-response,155,357827,2,"{""Q0"":""It was very interesting!""}",3.04,,,None,,,,,,,,,,,,,,,,True,True,no_key
156,,html-keyboard-response,156,358344,2,"{""Q0"":""It was very interesting!""}",3.04,,,None,,,,,,,,,,,,,,,,True,True,no_key
157,709.0,audio-keyboard-response,157,359054,2,"{""Q0"":""It was very interesting!""}",3.04,sound/300,,80.0,generalization,p,negative,True,,1.0,300.0,700.0,q,,True,,0.0,27.0,,False,False,negative
158,,html-keyboard-response,158,360058,2,"{""Q0"":""It was very interesting!""}",3.04,,,None,,,,,,,,,,,,,,,,True,True,no_key
159,,html-keyboard-response,159,360571,2,"{""Q0"":""It was very interesting!""}",3.04,,,None,,,,,,,,,,,,,,,,True,True,no_key
160,731.0,audio-keyboard-response,160,361305,2,"{""Q0"":""It was very interesting!""}",3.04,sound/760,,81.0,generalization,space,positive,False,,1.0,300.0,700.0,q,,True,760.0,60.0,28.0,,False,False,positive
161,,html-keyboard-response,161,362311,2,"{""Q0"":""It was very interesting!""}",3.04,,,None,,,,,,,,,,,,,,,,True,True,no_key
162,,html-keyboard-response,162,362829,2,"{""Q0"":""It was very interesting!""}",3.04,,,None,,,,,,,,,,,,,,,,True,True,no_key
163,808.0,audio-keyboard-response,163,363646,2,"{""Q0"":""It was very interesting!""}",3.04,sound/520,,32.0,generalization,space,control,True,,1.0,300.0,700.0,q,,,,,29.0,,False,False,neutral
164,,html-keyboard-response,164,364650,2,"{""Q0"":""It was very interesting!""}",3.04,,,None,,,,,,,,,,,,,,,,True,True,no_key
165,2115.0,html-keyboard-response,165,366768,2,"{""Q0"":""It was very interesting!""}",3.04,bonus earned during this period: $0.60<br><br>Press any key to continue.,,32.0,,,,,,,,,,,,,,,,True,True,neutral
166,24478.0,instructions,166,391248,2,"{""Q0"":""It was very interesting!""}",3.04,,,None,,,,,,,,,,,,,,,,True,True,no_key
167,,html-keyboard-response,167,392655,2,"{""Q0"":""It was very interesting!""}",3.04,"<div style=""font-size:120%; top:20%""></div>",,None,,,,,,,,,,,,,,,,True,True,no_key
168,,audio-keyboard-response,168,395171,2,"{""Q0"":""It was very interesting!""}",3.04,sound/300,,None,acquisition,anything,negative,False,,2.0,300.0,700.0,q,300.0,,,,,,False,False,no_key
169,,html-keyboard-response,169,396293,2,"{""Q0"":""It was very interesting!""}",3.04,"<font size=""100%"" weight=bold> incorrect! - $0.04</font>",,None,,,,,,,,,,,,,,,,True,True,no_key
170,,html-keyboard-response,170,397812,2,"{""Q0"":""It was very interesting!""}",3.04,"<div style=""font-size:120%; top:20%""></div>",,None,,,,,,,,,,,,,,,,True,True,no_key
171,,audio-keyboard-response,171,400324,2,"{""Q0"":""It was very interesting!""}",3.04,sound/500,,None,acquisition,anything,neutral,True,18.0,2.0,300.0,700.0,q,500.0,,,,,,False,False,no_key
172,,html-keyboard-response,172,401436,2,"{""Q0"":""It was very interesting!""}",3.04,"<font size=""100%"">neutral! so no change in bonus.</font>",,None,,,,,,,,,,,,,,,,True,True,no_key
173,,html-keyboard-response,173,402968,2,"{""Q0"":""It was very interesting!""}",3.04,"<div style=""font-size:120%; top:20%""></div>",,None,,,,,,,,,,,,,,,,True,True,no_key
174,720.0,audio-keyboard-response,174,403694,2,"{""Q0"":""It was very interesting!""}",3.04,sound/300,,80.0,acquisition,p,negative,True,19.0,2.0,300.0,700.0,q,300.0,True,,,,,False,False,negative
175,,html-keyboard-response,175,404802,2,"{""Q0"":""It was very interesting!""}",3.04,"<font size=""100%"" weight=bold> correct! - $0.00 </font>",,None,,,,,,,,,,,,,,,,True,True,no_key
176,,html-keyboard-response,176,406318,2,"{""Q0"":""It was very interesting!""}",3.04,"<div style=""font-size:120%; top:20%""></div>",,None,,,,,,,,,,,,,,,,True,True,no_key
177,541.0,audio-keyboard-response,177,406863,2,"{""Q0"":""It was very interesting!""}",3.04,sound/700,,81.0,acquisition,q,positive,True,20.0,2.0,300.0,700.0,q,700.0,True,,,,,False,False,positive
178,,html-keyboard-response,178,407981,2,"{""Q0"":""It was very interesting!""}",3.04,"<font size=""100%"" weight=bold> correct! + $0.04</font>",,None,,,,,,,,,,,,,,,,True,True,no_key
179,,html-keyboard-response,179,409508,2,"{""Q0"":""It was very interesting!""}",3.04,"<div style=""font-size:120%; top:20%""></div>",,None,,,,,,,,,,,,,,,,True,True,no_key
180,,audio-keyboard-response,180,412022,2,"{""Q0"":""It was very interesting!""}",3.04,sound/500,,None,acquisition,anything,neutral,True,21.0,2.0,300.0,700.0,q,500.0,,,,,,False,False,no_key
181,,html-keyboard-response,181,413147,2,"{""Q0"":""It was very interesting!""}",3.04,"<font size=""100%"">neutral! so no change in bonus.</font>",,None,,,,,,,,,,,,,,,,True,True,no_key
182,,html-keyboard-response,182,414668,2,"{""Q0"":""It was very interesting!""}",3.04,"<div style=""font-size:120%; top:20%""></div>",,None,,,,,,,,,,,,,,,,True,True,no_key
183,419.0,audio-keyboard-response,183,415095,2,"{""Q0"":""It was very interesting!""}",3.04,sound/300,,80.0,acquisition,p,negative,True,22.0,2.0,300.0,700.0,q,300.0,True,,,,,False,False,negative
184,,html-keyboard-response,184,416205,2,"{""Q0"":""It was very interesting!""}",3.04,"<font size=""100%"" weight=bold> correct! - $0.00 </font>",,None,,,,,,,,,,,,,,,,True,True,no_key
185,,html-keyboard-response,185,417720,2,"{""Q0"":""It was very interesting!""}",3.04,"<div style=""font-size:120%; top:20%""></div>",,None,,,,,,,,,,,,,,,,True,True,no_key
186,971.0,audio-keyboard-response,186,418700,2,"{""Q0"":""It was very interesting!""}",3.04,sound/500,,80.0,acquisition,anything,neutral,False,23.0,2.0,300.0,700.0,q,500.0,,,,,,False,False,negative
187,,html-keyboard-response,187,419830,2,"{""Q0"":""It was very interesting!""}",3.04,"<font size=""100%"">neutral! so no change in bonus.</font>",,None,,,,,,,,,,,,,,,,True,True,no_key
188,,html-keyboard-response,188,421341,2,"{""Q0"":""It was very interesting!""}",3.04,"<div style=""font-size:120%; top:20%""></div>",,None,,,,,,,,,,,,,,,,True,True,no_key
189,811.0,audio-keyboard-response,189,422150,2,"{""Q0"":""It was very interesting!""}",3.04,sound/300,,80.0,acquisition,p,negative,True,24.0,2.0,300.0,700.0,q,300.0,True,,,,,False,False,negative
190,,html-keyboard-response,190,423282,2,"{""Q0"":""It was very interesting!""}",3.04,"<font size=""100%"" weight=bold> correct! - $0.00 </font>",,None,,,,,,,,,,,,,,,,True,True,no_key
191,,html-keyboard-response,191,424814,2,"{""Q0"":""It was very interesting!""}",3.04,"<div style=""font-size:120%; top:20%""></div>",,None,,,,,,,,,,,,,,,,True,True,no_key
192,760.0,audio-keyboard-response,192,425573,2,"{""Q0"":""It was very interesting!""}",3.04,sound/700,,81.0,acquisition,q,positive,True,25.0,2.0,300.0,700.0,q,700.0,True,,,,,False,False,positive
193,,html-keyboard-response,193,426679,2,"{""Q0"":""It was very interesting!""}",3.04,"<font size=""100%"" weight=bold> correct! + $0.04</font>",,None,,,,,,,,,,,,,,,,True,True,no_key
194,,html-keyboard-response,194,428186,2,"{""Q0"":""It was very interesting!""}",3.04,"<div style=""font-size:120%; top:20%""></div>",,None,,,,,,,,,,,,,,,,True,True,no_key
195,640.0,audio-keyboard-response,195,428822,2,"{""Q0"":""It was very interesting!""}",3.04,sound/700,,81.0,acquisition,q,positive,True,26.0,2.0,300.0,700.0,q,700.0,True,,,,,False,False,positive
196,,html-keyboard-response,196,429937,2,"{""Q0"":""It was very interesting!""}",3.04,"<font size=""100%"" weight=bold> correct! + $0.04</font>",,None,,,,,,,,,,,,,,,,True,True,no_key
197,,html-keyboard-response,197,431460,2,"{""Q0"":""It was very interesting!""}",3.04,"<div style=""font-size:120%; top:20%""></div>",,None,,,,,,,,,,,,,,,,True,True,no_key
198,,audio-keyboard-response,198,433977,2,"{""Q0"":""It was very interesting!""}",3.04,sound/700,,None,acquisition,anything,positive,True,,2.0,300.0,700.0,q,700.0,,,,,,False,False,no_key
199,,html-keyboard-response,199,435098,2,"{""Q0"":""It was very interesting!""}",3.04,"<font size=""100%"" weight=bold> correct! + $0.04</font>",,None,,,,,,,,,,,,,,,,True,True,no_key
200,,html-keyboard-response,200,436625,2,"{""Q0"":""It was very interesting!""}",3.04,"<div style=""font-size:120%; top:20%""></div>",,None,,,,,,,,,,,,,,,,True,True,no_key
201,640.0,audio-keyboard-response,201,437278,2,"{""Q0"":""It was very interesting!""}",3.04,sound/700,,81.0,acquisition,q,positive,True,27.0,2.0,300.0,700.0,q,700.0,True,,,,,False,False,positive
202,,html-keyboard-response,202,438410,2,"{""Q0"":""It was very interesting!""}",3.04,"<font size=""100%"" weight=bold> correct! + $0.04</font>",,None,,,,,,,,,,,,,,,,True,True,no_key
203,,html-keyboard-response,203,439926,2,"{""Q0"":""It was very interesting!""}",3.04,"<div style=""font-size:120%; top:20%""></div>",,None,,,,,,,,,,,,,,,,True,True,no_key
204,691.0,audio-keyboard-response,204,442432,2,"{""Q0"":""It was very interesting!""}",3.04,sound/300,,80.0,acquisition,anything,negative,False,,2.0,300.0,700.0,q,300.0,,,,,,False,False,negative
205,,html-keyboard-response,205,443544,2,"{""Q0"":""It was very interesting!""}",3.04,"<font size=""100%"" weight=bold> incorrect! - $0.04</font>",,None,,,,,,,,,,,,,,,,True,True,no_key
206,,html-keyboard-response,206,445065,2,"{""Q0"":""It was very interesting!""}",3.04,"<div style=""font-size:120%; top:20%""></div>",,None,,,,,,,,,,,,,,,,True,True,no_key
207,1011.0,audio-keyboard-response,207,446079,2,"{""Q0"":""It was very interesting!""}",3.04,sound/500,,80.0,acquisition,anything,neutral,False,28.0,2.0,300.0,700.0,q,500.0,,,,,,False,False,negative
208,,html-keyboard-response,208,447195,2,"{""Q0"":""It was very interesting!""}",3.04,"<font size=""100%"">neutral! so no change in bonus.</font>",,None,,,,,,,,,,,,,,,,True,True,no_key
209,,html-keyboard-response,209,448716,2,"{""Q0"":""It was very interesting!""}",3.04,"<div style=""font-size:120%; top:20%""></div>",,None,,,,,,,,,,,,,,,,True,True,no_key
210,,audio-keyboard-response,210,451232,2,"{""Q0"":""It was very interesting!""}",3.04,sound/300,,None,acquisition,p,negative,False,29.0,2.0,300.0,700.0,q,300.0,,,,,,False,False,no_key
211,,html-keyboard-response,211,452344,2,"{""Q0"":""It was very interesting!""}",3.04,"<font size=""100%"" weight=bold> incorrect! - $0.04</font>",,None,,,,,,,,,,,,,,,,True,True,no_key
212,,html-keyboard-response,212,453875,2,"{""Q0"":""It was very interesting!""}",3.04,"<div style=""font-size:120%; top:20%""></div>",,None,,,,,,,,,,,,,,,,True,True,no_key
213,760.0,audio-keyboard-response,213,454643,2,"{""Q0"":""It was very interesting!""}",3.04,sound/700,,81.0,acquisition,q,positive,True,30.0,2.0,300.0,700.0,q,700.0,True,,,,,False,False,positive
214,,html-keyboard-response,214,455777,2,"{""Q0"":""It was very interesting!""}",3.04,"<font size=""100%"" weight=bold> correct! + $0.04</font>",,None,,,,,,,,,,,,,,,,True,True,no_key
215,,html-keyboard-response,215,457285,2,"{""Q0"":""It was very interesting!""}",3.04,"<div style=""font-size:120%; top:20%""></div>",,None,,,,,,,,,,,,,,,,True,True,no_key
216,781.0,audio-keyboard-response,216,458064,2,"{""Q0"":""It was very interesting!""}",3.04,sound/300,,80.0,acquisition,p,negative,True,31.0,2.0,300.0,700.0,q,300.0,True,,,,,False,False,negative
217,,html-keyboard-response,217,459189,2,"{""Q0"":""It was very interesting!""}",3.04,"<font size=""100%"" weight=bold> correct! - $0.00 </font>",,None,,,,,,,,,,,,,,,,True,True,no_key
218,,html-keyboard-response,218,460705,2,"{""Q0"":""It was very interesting!""}",3.04,"<div style=""font-size:120%; top:20%""></div>",,None,,,,,,,,,,,,,,,,True,True,no_key
219,,audio-keyboard-response,219,463220,2,"{""Q0"":""It was very interesting!""}",3.04,sound/700,,None,acquisition,anything,positive,True,,2.0,300.0,700.0,q,700.0,,,,,,False,False,no_key
220,,html-keyboard-response,220,464335,2,"{""Q0"":""It was very interesting!""}",3.04,"<font size=""100%"" weight=bold> correct! + $0.04</font>",,None,,,,,,,,,,,,,,,,True,True,no_key
221,,html-keyboard-response,221,465855,2,"{""Q0"":""It was very interesting!""}",3.04,"<div style=""font-size:120%; top:20%""></div>",,None,,,,,,,,,,,,,,,,True,True,no_key
222,,audio-keyboard-response,222,468360,2,"{""Q0"":""It was very interesting!""}",3.04,sound/500,,None,acquisition,anything,neutral,True,32.0,2.0,300.0,700.0,q,500.0,,,,,,False,False,no_key
223,,html-keyboard-response,223,469473,2,"{""Q0"":""It was very interesting!""}",3.04,"<font size=""100%"">neutral! so no change in bonus.</font>",,None,,,,,,,,,,,,,,,,True,True,no_key
224,,html-keyboard-response,224,470993,2,"{""Q0"":""It was very interesting!""}",3.04,"<div style=""font-size:120%; top:20%""></div>",,None,,,,,,,,,,,,,,,,True,True,no_key
225,659.0,audio-keyboard-response,225,471650,2,"{""Q0"":""It was very interesting!""}",3.04,sound/700,,81.0,acquisition,q,positive,True,33.0,2.0,300.0,700.0,q,700.0,True,,,,,False,False,positive
226,,html-keyboard-response,226,472764,2,"{""Q0"":""It was very interesting!""}",3.04,"<font size=""100%"" weight=bold> correct! + $0.04</font>",,None,,,,,,,,,,,,,,,,True,True,no_key
227,,html-keyboard-response,227,474296,2,"{""Q0"":""It was very interesting!""}",3.04,"<div style=""font-size:120%; top:20%""></div>",,None,,,,,,,,,,,,,,,,True,True,no_key
228,571.0,audio-keyboard-response,228,474866,2,"{""Q0"":""It was very interesting!""}",3.04,sound/300,,80.0,acquisition,p,negative,True,34.0,2.0,300.0,700.0,q,300.0,True,,,,,False,False,negative
229,,html-keyboard-response,229,475983,2,"{""Q0"":""It was very interesting!""}",3.04,"<font size=""100%"" weight=bold> correct! - $0.00 </font>",,None,,,,,,,,,,,,,,,,True,True,no_key
230,,html-keyboard-response,230,477510,2,"{""Q0"":""It was very interesting!""}",3.04,"<div style=""font-size:120%; top:20%""></div>",,None,,,,,,,,,,,,,,,,True,True,no_key
231,,audio-keyboard-response,231,480016,2,"{""Q0"":""It was very interesting!""}",3.04,sound/500,,None,acquisition,anything,neutral,True,35.0,2.0,300.0,700.0,q,500.0,,,,,,False,False,no_key
232,,html-keyboard-response,232,481132,2,"{""Q0"":""It was very interesting!""}",3.04,"<font size=""100%"">neutral! so no change in bonus.</font>",,None,,,,,,,,,,,,,,,,True,True,no_key
233,4793.0,html-keyboard-response,233,486437,2,"{""Q0"":""It was very interesting!""}",3.04,The total bonus amount of bonus you earned in this last period was $0.20.<br> Press any key to continue to the next step.,,32.0,,,,,,,,,,,,,,,,True,True,neutral
234,4576.0,instructions,234,491016,2,"{""Q0"":""It was very interesting!""}",3.04,,,None,,,,,,,,,,,,,,,,True,True,no_key
235,,html-keyboard-response,235,491951,2,"{""Q0"":""It was very interesting!""}",3.04,,,None,,,,,,,,,,,,,,,,True,True,no_key
236,869.0,audio-keyboard-response,236,492825,2,"{""Q0"":""It was very interesting!""}",3.04,sound/640,,32.0,generalization,space,positive,True,,2.0,300.0,700.0,q,,False,640.0,-60.0,30.0,,False,False,neutral
237,,html-keyboard-response,237,493839,2,"{""Q0"":""It was very interesting!""}",3.04,,,None,,,,,,,,,,,,,,,,True,True,no_key
238,,html-keyboard-response,238,494354,2,"{""Q0"":""It was very interesting!""}",3.04,,,None,,,,,,,,,,,,,,,,True,True,no_key
239,728.0,audio-keyboard-response,239,495084,2,"{""Q0"":""It was very interesting!""}",3.04,sound/600,,32.0,generalization,space,positive,True,,2.0,300.0,700.0,q,,False,600.0,-100.0,31.0,,False,False,neutral
240,,html-keyboard-response,240,496097,2,"{""Q0"":""It was very interesting!""}",3.04,,,None,,,,,,,,,,,,,,,,True,True,no_key
241,,html-keyboard-response,241,496613,2,"{""Q0"":""It was very interesting!""}",3.04,,,None,,,,,,,,,,,,,,,,True,True,no_key
242,760.0,audio-keyboard-response,242,497378,2,"{""Q0"":""It was very interesting!""}",3.04,sound/305,,80.0,generalization,space,negative,False,,2.0,300.0,700.0,q,,True,305.0,5.0,32.0,,False,False,negative
243,,html-keyboard-response,243,498386,2,"{""Q0"":""It was very interesting!""}",3.04,,,None,,,,,,,,,,,,,,,,True,True,no_key
244,,html-keyboard-response,244,498898,2,"{""Q0"":""It was very interesting!""}",3.04,,,None,,,,,,,,,,,,,,,,True,True,no_key
245,720.0,audio-keyboard-response,245,499624,2,"{""Q0"":""It was very interesting!""}",3.04,sound/920,,32.0,generalization,space,control,True,,2.0,300.0,700.0,q,,,,,33.0,,False,False,neutral
246,,html-keyboard-response,246,500640,2,"{""Q0"":""It was very interesting!""}",3.04,,,None,,,,,,,,,,,,,,,,True,True,no_key
247,,html-keyboard-response,247,501155,2,"{""Q0"":""It was very interesting!""}",3.04,,,None,,,,,,,,,,,,,,,,True,True,no_key
248,1048.0,audio-keyboard-response,248,502205,2,"{""Q0"":""It was very interesting!""}",3.04,sound/500,,80.0,generalization,space,control,False,,2.0,300.0,700.0,q,,,,,34.0,,False,False,negative
249,,html-keyboard-response,249,503217,2,"{""Q0"":""It was very interesting!""}",3.04,,,None,,,,,,,,,,,,,,,,True,True,no_key
250,,html-keyboard-response,250,503734,2,"{""Q0"":""It was very interesting!""}",3.04,,,None,,,,,,,,,,,,,,,,True,True,no_key
251,941.0,audio-keyboard-response,251,504680,2,"{""Q0"":""It was very interesting!""}",3.04,sound/800,,32.0,generalization,space,positive,True,,2.0,300.0,700.0,q,,False,800.0,100.0,35.0,,False,False,neutral
252,,html-keyboard-response,252,505696,2,"{""Q0"":""It was very interesting!""}",3.04,,,None,,,,,,,,,,,,,,,,True,True,no_key
253,,html-keyboard-response,253,506211,2,"{""Q0"":""It was very interesting!""}",3.04,,,None,,,,,,,,,,,,,,,,True,True,no_key
254,741.0,audio-keyboard-response,254,506954,2,"{""Q0"":""It was very interesting!""}",3.04,sound/700,,81.0,generalization,q,positive,True,,2.0,300.0,700.0,q,,True,,0.0,36.0,,False,False,positive
255,,html-keyboard-response,255,507962,2,"{""Q0"":""It was very interesting!""}",3.04,,,None,,,,,,,,,,,,,,,,True,True,no_key
256,,html-keyboard-response,256,508480,2,"{""Q0"":""It was very interesting!""}",3.04,,,None,,,,,,,,,,,,,,,,True,True,no_key
257,632.0,audio-keyboard-response,257,509114,2,"{""Q0"":""It was very interesting!""}",3.04,sound/200,,32.0,generalization,space,negative,True,,2.0,300.0,700.0,q,,False,200.0,-100.0,37.0,,False,False,neutral
258,,html-keyboard-response,258,510128,2,"{""Q0"":""It was very interesting!""}",3.04,,,None,,,,,,,,,,,,,,,,True,True,no_key
259,,html-keyboard-response,259,510644,2,"{""Q0"":""It was very interesting!""}",3.04,,,None,,,,,,,,,,,,,,,,True,True,no_key
260,1069.0,audio-keyboard-response,260,511721,2,"{""Q0"":""It was very interesting!""}",3.04,sound/480,,32.0,generalization,space,control,True,,2.0,300.0,700.0,q,,,,,38.0,,False,False,neutral
261,,html-keyboard-response,261,512727,2,"{""Q0"":""It was very interesting!""}",3.04,,,None,,,,,,,,,,,,,,,,True,True,no_key
262,,html-keyboard-response,262,513243,2,"{""Q0"":""It was very interesting!""}",3.04,,,None,,,,,,,,,,,,,,,,True,True,no_key
263,491.0,audio-keyboard-response,263,513733,2,"{""Q0"":""It was very interesting!""}",3.04,sound/300,,80.0,generalization,p,negative,True,,2.0,300.0,700.0,q,,True,,0.0,39.0,,False,False,negative
264,,html-keyboard-response,264,514746,2,"{""Q0"":""It was very interesting!""}",3.04,,,None,,,,,,,,,,,,,,,,True,True,no_key
265,,html-keyboard-response,265,515261,2,"{""Q0"":""It was very interesting!""}",3.04,,,None,,,,,,,,,,,,,,,,True,True,no_key
266,579.0,audio-keyboard-response,266,515850,2,"{""Q0"":""It was very interesting!""}",3.04,sound/700,,81.0,generalization,q,positive,True,,2.0,300.0,700.0,q,,True,,0.0,40.0,,False,False,positive
267,,html-keyboard-response,267,516864,2,"{""Q0"":""It was very interesting!""}",3.04,,,None,,,,,,,,,,,,,,,,True,True,no_key
268,,html-keyboard-response,268,517379,2,"{""Q0"":""It was very interesting!""}",3.04,,,None,,,,,,,,,,,,,,,,True,True,no_key
269,651.0,audio-keyboard-response,269,518033,2,"{""Q0"":""It was very interesting!""}",3.04,sound/520,,32.0,generalization,space,control,True,,2.0,300.0,700.0,q,,,,,41.0,,False,False,neutral
270,,html-keyboard-response,270,519048,2,"{""Q0"":""It was very interesting!""}",3.04,,,None,,,,,,,,,,,,,,,,True,True,no_key
271,,html-keyboard-response,271,519563,2,"{""Q0"":""It was very interesting!""}",3.04,,,None,,,,,,,,,,,,,,,,True,True,no_key
272,541.0,audio-keyboard-response,272,520113,2,"{""Q0"":""It was very interesting!""}",3.04,sound/700,,32.0,generalization,q,positive,False,,2.0,300.0,700.0,q,,False,,0.0,42.0,,False,False,neutral
273,,html-keyboard-response,273,521129,2,"{""Q0"":""It was very interesting!""}",3.04,,,None,,,,,,,,,,,,,,,,True,True,no_key
274,,html-keyboard-response,274,521648,2,"{""Q0"":""It was very interesting!""}",3.04,,,None,,,,,,,,,,,,,,,,True,True,no_key
275,720.0,audio-keyboard-response,275,522378,2,"{""Q0"":""It was very interesting!""}",3.04,sound/760,,32.0,generalization,space,positive,True,,2.0,300.0,700.0,q,,False,760.0,60.0,43.0,,False,False,neutral
276,,html-keyboard-response,276,523410,2,"{""Q0"":""It was very interesting!""}",3.04,,,None,,,,,,,,,,,,,,,,True,True,no_key
277,,html-keyboard-response,277,523920,2,"{""Q0"":""It was very interesting!""}",3.04,,,None,,,,,,,,,,,,,,,,True,True,no_key
278,691.0,audio-keyboard-response,278,524613,2,"{""Q0"":""It was very interesting!""}",3.04,sound/295,,80.0,generalization,space,negative,False,,2.0,300.0,700.0,q,,True,295.0,-5.0,44.0,,False,False,negative
279,,html-keyboard-response,279,525632,2,"{""Q0"":""It was very interesting!""}",3.04,,,None,,,,,,,,,,,,,,,,True,True,no_key
280,,html-keyboard-response,280,526150,2,"{""Q0"":""It was very interesting!""}",3.04,,,None,,,,,,,,,,,,,,,,True,True,no_key
281,659.0,audio-keyboard-response,281,526820,2,"{""Q0"":""It was very interesting!""}",3.04,sound/240,,32.0,generalization,space,negative,True,,2.0,300.0,700.0,q,,False,240.0,-60.0,45.0,,False,False,neutral
282,,html-keyboard-response,282,527834,2,"{""Q0"":""It was very interesting!""}",3.04,,,None,,,,,,,,,,,,,,,,True,True,no_key
283,,html-keyboard-response,283,528352,2,"{""Q0"":""It was very interesting!""}",3.04,,,None,,,,,,,,,,,,,,,,True,True,no_key
284,560.0,audio-keyboard-response,284,528918,2,"{""Q0"":""It was very interesting!""}",3.04,sound/705,,81.0,generalization,space,positive,False,,2.0,300.0,700.0,q,,True,705.0,5.0,46.0,,False,False,positive
285,,html-keyboard-response,285,529933,2,"{""Q0"":""It was very interesting!""}",3.04,,,None,,,,,,,,,,,,,,,,True,True,no_key
286,,html-keyboard-response,286,530454,2,"{""Q0"":""It was very interesting!""}",3.04,,,None,,,,,,,,,,,,,,,,True,True,no_key
287,600.0,audio-keyboard-response,287,531054,2,"{""Q0"":""It was very interesting!""}",3.04,sound/400,,32.0,generalization,space,negative,True,,2.0,300.0,700.0,q,,False,400.0,100.0,47.0,,False,False,neutral
288,,html-keyboard-response,288,532068,2,"{""Q0"":""It was very interesting!""}",3.04,,,None,,,,,,,,,,,,,,,,True,True,no_key
289,,html-keyboard-response,289,532584,2,"{""Q0"":""It was very interesting!""}",3.04,,,None,,,,,,,,,,,,,,,,True,True,no_key
290,499.0,audio-keyboard-response,290,533085,2,"{""Q0"":""It was very interesting!""}",3.04,sound/360,,32.0,generalization,space,negative,True,,2.0,300.0,700.0,q,,False,360.0,60.0,48.0,,False,False,neutral
291,,html-keyboard-response,291,534102,2,"{""Q0"":""It was very interesting!""}",3.04,,,None,,,,,,,,,,,,,,,,True,True,no_key
292,,html-keyboard-response,292,534621,2,"{""Q0"":""It was very interesting!""}",3.04,,,None,,,,,,,,,,,,,,,,True,True,no_key
293,629.0,audio-keyboard-response,293,535252,2,"{""Q0"":""It was very interesting!""}",3.04,sound/680,,32.0,generalization,space,positive,True,,2.0,300.0,700.0,q,,False,680.0,-20.0,49.0,,False,False,neutral
294,,html-keyboard-response,294,536259,2,"{""Q0"":""It was very interesting!""}",3.04,,,None,,,,,,,,,,,,,,,,True,True,no_key
295,,html-keyboard-response,295,536775,2,"{""Q0"":""It was very interesting!""}",3.04,,,None,,,,,,,,,,,,,,,,True,True,no_key
296,1029.0,audio-keyboard-response,296,537819,2,"{""Q0"":""It was very interesting!""}",3.04,sound/720,,81.0,generalization,space,positive,False,,2.0,300.0,700.0,q,,True,720.0,20.0,50.0,,False,False,positive
297,,html-keyboard-response,297,538837,2,"{""Q0"":""It was very interesting!""}",3.04,,,None,,,,,,,,,,,,,,,,True,True,no_key
298,,html-keyboard-response,298,539353,2,"{""Q0"":""It was very interesting!""}",3.04,,,None,,,,,,,,,,,,,,,,True,True,no_key
299,669.0,audio-keyboard-response,299,540026,2,"{""Q0"":""It was very interesting!""}",3.04,sound/300,,80.0,generalization,p,negative,True,,2.0,300.0,700.0,q,,True,,0.0,51.0,,False,False,negative
300,,html-keyboard-response,300,541038,2,"{""Q0"":""It was very interesting!""}",3.04,,,None,,,,,,,,,,,,,,,,True,True,no_key
301,,html-keyboard-response,301,541555,2,"{""Q0"":""It was very interesting!""}",3.04,,,None,,,,,,,,,,,,,,,,True,True,no_key
302,552.0,audio-keyboard-response,302,542114,2,"{""Q0"":""It was very interesting!""}",3.04,sound/880,,32.0,generalization,space,control,True,,2.0,300.0,700.0,q,,,,,52.0,,False,False,neutral
303,,html-keyboard-response,303,543129,2,"{""Q0"":""It was very interesting!""}",3.04,,,None,,,,,,,,,,,,,,,,True,True,no_key
304,,html-keyboard-response,304,543648,2,"{""Q0"":""It was very interesting!""}",3.04,,,None,,,,,,,,,,,,,,,,True,True,no_key
305,600.0,audio-keyboard-response,305,544252,2,"{""Q0"":""It was very interesting!""}",3.04,sound/280,,32.0,generalization,space,negative,True,,2.0,300.0,700.0,q,,False,280.0,-20.0,53.0,,False,False,neutral
306,,html-keyboard-response,306,545262,2,"{""Q0"":""It was very interesting!""}",3.04,,,None,,,,,,,,,,,,,,,,True,True,no_key
307,,html-keyboard-response,307,545778,2,"{""Q0"":""It was very interesting!""}",3.04,,,None,,,,,,,,,,,,,,,,True,True,no_key
308,549.0,audio-keyboard-response,308,546336,2,"{""Q0"":""It was very interesting!""}",3.04,sound/300,,80.0,generalization,p,negative,True,,2.0,300.0,700.0,q,,True,,0.0,54.0,,False,False,negative
309,,html-keyboard-response,309,547356,2,"{""Q0"":""It was very interesting!""}",3.04,,,None,,,,,,,,,,,,,,,,True,True,no_key
310,,html-keyboard-response,310,547875,2,"{""Q0"":""It was very interesting!""}",3.04,,,None,,,,,,,,,,,,,,,,True,True,no_key
311,941.0,audio-keyboard-response,311,548824,2,"{""Q0"":""It was very interesting!""}",3.04,sound/900,,32.0,generalization,space,control,True,,2.0,300.0,700.0,q,,,,,55.0,,False,False,neutral
312,,html-keyboard-response,312,549831,2,"{""Q0"":""It was very interesting!""}",3.04,,,None,,,,,,,,,,,,,,,,True,True,no_key
313,,html-keyboard-response,313,550349,2,"{""Q0"":""It was very interesting!""}",3.04,,,None,,,,,,,,,,,,,,,,True,True,no_key
314,699.0,audio-keyboard-response,314,551057,2,"{""Q0"":""It was very interesting!""}",3.04,sound/300,,80.0,generalization,p,negative,True,,2.0,300.0,700.0,q,,True,,0.0,56.0,,False,False,negative
315,,html-keyboard-response,315,552070,2,"{""Q0"":""It was very interesting!""}",3.04,,,None,,,,,,,,,,,,,,,,True,True,no_key
316,,html-keyboard-response,316,552583,2,"{""Q0"":""It was very interesting!""}",3.04,,,None,,,,,,,,,,,,,,,,True,True,no_key
317,509.0,audio-keyboard-response,317,553102,2,"{""Q0"":""It was very interesting!""}",3.04,sound/695,,81.0,generalization,space,positive,False,,2.0,300.0,700.0,q,,True,695.0,-5.0,57.0,,False,False,positive
318,,html-keyboard-response,318,554120,2,"{""Q0"":""It was very interesting!""}",3.04,,,None,,,,,,,,,,,,,,,,True,True,no_key
319,,html-keyboard-response,319,554638,2,"{""Q0"":""It was very interesting!""}",3.04,,,None,,,,,,,,,,,,,,,,True,True,no_key
320,792.0,audio-keyboard-response,320,555435,2,"{""Q0"":""It was very interesting!""}",3.04,sound/320,,32.0,generalization,space,negative,True,,2.0,300.0,700.0,q,,False,320.0,20.0,58.0,,False,False,neutral
321,,html-keyboard-response,321,556445,2,"{""Q0"":""It was very interesting!""}",3.04,,,None,,,,,,,,,,,,,,,,True,True,no_key
322,,html-keyboard-response,322,556961,2,"{""Q0"":""It was very interesting!""}",3.04,,,None,,,,,,,,,,,,,,,,True,True,no_key
323,611.0,audio-keyboard-response,323,557578,2,"{""Q0"":""It was very interesting!""}",3.04,sound/700,,81.0,generalization,q,positive,True,,2.0,300.0,700.0,q,,True,,0.0,59.0,,False,False,positive
324,,html-keyboard-response,324,558601,2,"{""Q0"":""It was very interesting!""}",3.04,,,None,,,,,,,,,,,,,,,,True,True,no_key
325,1988.0,html-keyboard-response,325,560593,2,"{""Q0"":""It was very interesting!""}",3.04,bonus earned during this period: $0.92<br><br>Press any key to continue.,,32.0,,,,,,,,,,,,,,,,True,True,neutral
326,5493.0,instructions,326,566095,2,"{""Q0"":""It was very interesting!""}",3.04,,,None,,,,,,,,,,,,,,,,True,True,no_key
327,,html-keyboard-response,327,567525,2,"{""Q0"":""It was very interesting!""}",3.04,"<div style=""font-size:120%; top:20%""></div>",,None,,,,,,,,,,,,,,,,True,True,no_key
328,952.0,audio-keyboard-response,328,568470,2,"{""Q0"":""It was very interesting!""}",3.04,sound/300,,80.0,acquisition,p,negative,True,36.0,3.0,300.0,700.0,q,300.0,True,,,,,False,False,negative
329,,html-keyboard-response,329,569595,2,"{""Q0"":""It was very interesting!""}",3.04,"<font size=""100%"" weight=bold> correct! - $0.00 </font>",,None,,,,,,,,,,,,,,,,True,True,no_key
330,,html-keyboard-response,330,571113,2,"{""Q0"":""It was very interesting!""}",3.04,"<div style=""font-size:120%; top:20%""></div>",,None,,,,,,,,,,,,,,,,True,True,no_key
331,,audio-keyboard-response,331,573633,2,"{""Q0"":""It was very interesting!""}",3.04,sound/300,,None,acquisition,anything,negative,False,,3.0,300.0,700.0,q,300.0,,,,,,False,False,no_key
332,,html-keyboard-response,332,574760,2,"{""Q0"":""It was very interesting!""}",3.04,"<font size=""100%"" weight=bold> incorrect! - $0.04</font>",,None,,,,,,,,,,,,,,,,True,True,no_key
333,,html-keyboard-response,333,576289,2,"{""Q0"":""It was very interesting!""}",3.04,"<div style=""font-size:120%; top:20%""></div>",,None,,,,,,,,,,,,,,,,True,True,no_key
334,,audio-keyboard-response,334,578807,2,"{""Q0"":""It was very interesting!""}",3.04,sound/500,,None,acquisition,anything,neutral,True,37.0,3.0,300.0,700.0,q,500.0,,,,,,False,False,no_key
335,,html-keyboard-response,335,579932,2,"{""Q0"":""It was very interesting!""}",3.04,"<font size=""100%"">neutral! so no change in bonus.</font>",,None,,,,,,,,,,,,,,,,True,True,no_key
336,,html-keyboard-response,336,581452,2,"{""Q0"":""It was very interesting!""}",3.04,"<div style=""font-size:120%; top:20%""></div>",,None,,,,,,,,,,,,,,,,True,True,no_key
337,,audio-keyboard-response,337,583971,2,"{""Q0"":""It was very interesting!""}",3.04,sound/500,,None,acquisition,anything,neutral,True,38.0,3.0,300.0,700.0,q,500.0,,,,,,False,False,no_key
338,,html-keyboard-response,338,585087,2,"{""Q0"":""It was very interesting!""}",3.04,"<font size=""100%"">neutral! so no change in bonus.</font>",,None,,,,,,,,,,,,,,,,True,True,no_key
339,,html-keyboard-response,339,586618,2,"{""Q0"":""It was very interesting!""}",3.04,"<div style=""font-size:120%; top:20%""></div>",,None,,,,,,,,,,,,,,,,True,True,no_key
340,629.0,audio-keyboard-response,340,587259,2,"{""Q0"":""It was very interesting!""}",3.04,sound/700,,81.0,acquisition,q,positive,True,39.0,3.0,300.0,700.0,q,700.0,True,,,,,False,False,positive
341,,html-keyboard-response,341,588397,2,"{""Q0"":""It was very interesting!""}",3.04,"<font size=""100%"" weight=bold> correct! + $0.04</font>",,None,,,,,,,,,,,,,,,,True,True,no_key
342,,html-keyboard-response,342,589913,2,"{""Q0"":""It was very interesting!""}",3.04,"<div style=""font-size:120%; top:20%""></div>",,None,,,,,,,,,,,,,,,,True,True,no_key
343,651.0,audio-keyboard-response,343,590577,2,"{""Q0"":""It was very interesting!""}",3.04,sound/300,,80.0,acquisition,p,negative,True,40.0,3.0,300.0,700.0,q,300.0,True,,,,,False,False,negative
344,,html-keyboard-response,344,591700,2,"{""Q0"":""It was very interesting!""}",3.04,"<font size=""100%"" weight=bold> correct! - $0.00 </font>",,None,,,,,,,,,,,,,,,,True,True,no_key
345,,html-keyboard-response,345,593224,2,"{""Q0"":""It was very interesting!""}",3.04,"<div style=""font-size:120%; top:20%""></div>",,None,,,,,,,,,,,,,,,,True,True,no_key
346,560.0,audio-keyboard-response,346,593798,2,"{""Q0"":""It was very interesting!""}",3.04,sound/700,,81.0,acquisition,q,positive,True,41.0,3.0,300.0,700.0,q,700.0,True,,,,,False,False,positive
347,,html-keyboard-response,347,594916,2,"{""Q0"":""It was very interesting!""}",3.04,"<font size=""100%"" weight=bold> correct! + $0.04</font>",,None,,,,,,,,,,,,,,,,True,True,no_key
348,,html-keyboard-response,348,596443,2,"{""Q0"":""It was very interesting!""}",3.04,"<div style=""font-size:120%; top:20%""></div>",,None,,,,,,,,,,,,,,,,True,True,no_key
349,,audio-keyboard-response,349,598958,2,"{""Q0"":""It was very interesting!""}",3.04,sound/700,,None,acquisition,anything,positive,True,,3.0,300.0,700.0,q,700.0,,,,,,False,False,no_key
350,,html-keyboard-response,350,600087,2,"{""Q0"":""It was very interesting!""}",3.04,"<font size=""100%"" weight=bold> correct! + $0.04</font>",,None,,,,,,,,,,,,,,,,True,True,no_key
351,,html-keyboard-response,351,601607,2,"{""Q0"":""It was very interesting!""}",3.04,"<div style=""font-size:120%; top:20%""></div>",,None,,,,,,,,,,,,,,,,True,True,no_key
352,,audio-keyboard-response,352,604115,2,"{""Q0"":""It was very interesting!""}",3.04,sound/500,,None,acquisition,anything,neutral,True,42.0,3.0,300.0,700.0,q,500.0,,,,,,False,False,no_key
353,,html-keyboard-response,353,605240,2,"{""Q0"":""It was very interesting!""}",3.04,"<font size=""100%"">neutral! so no change in bonus.</font>",,None,,,,,,,,,,,,,,,,True,True,no_key
354,,html-keyboard-response,354,606764,2,"{""Q0"":""It was very interesting!""}",3.04,"<div style=""font-size:120%; top:20%""></div>",,None,,,,,,,,,,,,,,,,True,True,no_key
355,621.0,audio-keyboard-response,355,607396,2,"{""Q0"":""It was very interesting!""}",3.04,sound/700,,81.0,acquisition,q,positive,True,43.0,3.0,300.0,700.0,q,700.0,True,,,,,False,False,positive
356,,html-keyboard-response,356,608519,2,"{""Q0"":""It was very interesting!""}",3.04,"<font size=""100%"" weight=bold> correct! + $0.04</font>",,None,,,,,,,,,,,,,,,,True,True,no_key
357,,html-keyboard-response,357,610038,2,"{""Q0"":""It was very interesting!""}",3.04,"<div style=""font-size:120%; top:20%""></div>",,None,,,,,,,,,,,,,,,,True,True,no_key
358,771.0,audio-keyboard-response,358,610817,2,"{""Q0"":""It was very interesting!""}",3.04,sound/300,,80.0,acquisition,p,negative,True,44.0,3.0,300.0,700.0,q,300.0,True,,,,,False,False,negative
359,,html-keyboard-response,359,611932,2,"{""Q0"":""It was very interesting!""}",3.04,"<font size=""100%"" weight=bold> correct! - $0.00 </font>",,None,,,,,,,,,,,,,,,,True,True,no_key
360,,html-keyboard-response,360,613449,2,"{""Q0"":""It was very interesting!""}",3.04,"<div style=""font-size:120%; top:20%""></div>",,None,,,,,,,,,,,,,,,,True,True,no_key
361,,audio-keyboard-response,361,615969,2,"{""Q0"":""It was very interesting!""}",3.04,sound/500,,None,acquisition,anything,neutral,True,45.0,3.0,300.0,700.0,q,500.0,,,,,,False,False,no_key
362,,html-keyboard-response,362,617092,2,"{""Q0"":""It was very interesting!""}",3.04,"<font size=""100%"">neutral! so no change in bonus.</font>",,None,,,,,,,,,,,,,,,,True,True,no_key
363,,html-keyboard-response,363,618609,2,"{""Q0"":""It was very interesting!""}",3.04,"<div style=""font-size:120%; top:20%""></div>",,None,,,,,,,,,,,,,,,,True,True,no_key
364,411.0,audio-keyboard-response,364,619022,2,"{""Q0"":""It was very interesting!""}",3.04,sound/700,,81.0,acquisition,q,positive,True,46.0,3.0,300.0,700.0,q,700.0,True,,,,,False,False,positive
365,,html-keyboard-response,365,620143,2,"{""Q0"":""It was very interesting!""}",3.04,"<font size=""100%"" weight=bold> correct! + $0.04</font>",,None,,,,,,,,,,,,,,,,True,True,no_key
366,,html-keyboard-response,366,621675,2,"{""Q0"":""It was very interesting!""}",3.04,"<div style=""font-size:120%; top:20%""></div>",,None,,,,,,,,,,,,,,,,True,True,no_key
367,760.0,audio-keyboard-response,367,622440,2,"{""Q0"":""It was very interesting!""}",3.04,sound/300,,80.0,acquisition,p,negative,True,47.0,3.0,300.0,700.0,q,300.0,True,,,,,False,False,negative
368,,html-keyboard-response,368,623550,2,"{""Q0"":""It was very interesting!""}",3.04,"<font size=""100%"" weight=bold> correct! - $0.00 </font>",,None,,,,,,,,,,,,,,,,True,True,no_key
369,,html-keyboard-response,369,625072,2,"{""Q0"":""It was very interesting!""}",3.04,"<div style=""font-size:120%; top:20%""></div>",,None,,,,,,,,,,,,,,,,True,True,no_key
370,,audio-keyboard-response,370,627593,2,"{""Q0"":""It was very interesting!""}",3.04,sound/500,,None,acquisition,anything,neutral,True,48.0,3.0,300.0,700.0,q,500.0,,,,,,False,False,no_key
371,,html-keyboard-response,371,628715,2,"{""Q0"":""It was very interesting!""}",3.04,"<font size=""100%"">neutral! so no change in bonus.</font>",,None,,,,,,,,,,,,,,,,True,True,no_key
372,,html-keyboard-response,372,630241,2,"{""Q0"":""It was very interesting!""}",3.04,"<div style=""font-size:120%; top:20%""></div>",,None,,,,,,,,,,,,,,,,True,True,no_key
373,,audio-keyboard-response,373,632751,2,"{""Q0"":""It was very interesting!""}",3.04,sound/500,,None,acquisition,anything,neutral,True,49.0,3.0,300.0,700.0,q,500.0,,,,,,False,False,no_key
374,,html-keyboard-response,374,633863,2,"{""Q0"":""It was very interesting!""}",3.04,"<font size=""100%"">neutral! so no change in bonus.</font>",,None,,,,,,,,,,,,,,,,True,True,no_key
375,,html-keyboard-response,375,635383,2,"{""Q0"":""It was very interesting!""}",3.04,"<div style=""font-size:120%; top:20%""></div>",,None,,,,,,,,,,,,,,,,True,True,no_key
376,488.0,audio-keyboard-response,376,635879,2,"{""Q0"":""It was very interesting!""}",3.04,sound/700,,81.0,acquisition,q,positive,True,50.0,3.0,300.0,700.0,q,700.0,True,,,,,False,False,positive
377,,html-keyboard-response,377,636994,2,"{""Q0"":""It was very interesting!""}",3.04,"<font size=""100%"" weight=bold> correct! + $0.04</font>",,None,,,,,,,,,,,,,,,,True,True,no_key
378,,html-keyboard-response,378,638528,2,"{""Q0"":""It was very interesting!""}",3.04,"<div style=""font-size:120%; top:20%""></div>",,None,,,,,,,,,,,,,,,,True,True,no_key
379,,audio-keyboard-response,379,641047,2,"{""Q0"":""It was very interesting!""}",3.04,sound/300,,None,acquisition,anything,negative,False,,3.0,300.0,700.0,q,300.0,,,,,,False,False,no_key
380,,html-keyboard-response,380,642169,2,"{""Q0"":""It was very interesting!""}",3.04,"<font size=""100%"" weight=bold> incorrect! - $0.04</font>",,None,,,,,,,,,,,,,,,,True,True,no_key
381,,html-keyboard-response,381,643688,2,"{""Q0"":""It was very interesting!""}",3.04,"<div style=""font-size:120%; top:20%""></div>",,None,,,,,,,,,,,,,,,,True,True,no_key
382,,audio-keyboard-response,382,646205,2,"{""Q0"":""It was very interesting!""}",3.04,sound/700,,None,acquisition,anything,positive,True,,3.0,300.0,700.0,q,700.0,,,,,,False,False,no_key
383,,html-keyboard-response,383,647339,2,"{""Q0"":""It was very interesting!""}",3.04,"<font size=""100%"" weight=bold> correct! + $0.04</font>",,None,,,,,,,,,,,,,,,,True,True,no_key
384,,html-keyboard-response,384,648869,2,"{""Q0"":""It was very interesting!""}",3.04,"<div style=""font-size:120%; top:20%""></div>",,None,,,,,,,,,,,,,,,,True,True,no_key
385,669.0,audio-keyboard-response,385,649544,2,"{""Q0"":""It was very interesting!""}",3.04,sound/700,,81.0,acquisition,q,positive,True,51.0,3.0,300.0,700.0,q,700.0,True,,,,,False,False,positive
386,,html-keyboard-response,386,650671,2,"{""Q0"":""It was very interesting!""}",3.04,"<font size=""100%"" weight=bold> correct! + $0.04</font>",,None,,,,,,,,,,,,,,,,True,True,no_key
387,,html-keyboard-response,387,652193,2,"{""Q0"":""It was very interesting!""}",3.04,"<div style=""font-size:120%; top:20%""></div>",,None,,,,,,,,,,,,,,,,True,True,no_key
388,720.0,audio-keyboard-response,388,652926,2,"{""Q0"":""It was very interesting!""}",3.04,sound/300,,80.0,acquisition,p,negative,True,52.0,3.0,300.0,700.0,q,300.0,True,,,,,False,False,negative
389,,html-keyboard-response,389,654047,2,"{""Q0"":""It was very interesting!""}",3.04,"<font size=""100%"" weight=bold> correct! - $0.00 </font>",,None,,,,,,,,,,,,,,,,True,True,no_key
390,,html-keyboard-response,390,655572,2,"{""Q0"":""It was very interesting!""}",3.04,"<div style=""font-size:120%; top:20%""></div>",,None,,,,,,,,,,,,,,,,True,True,no_key
391,509.0,audio-keyboard-response,391,656093,2,"{""Q0"":""It was very interesting!""}",3.04,sound/300,,80.0,acquisition,p,negative,True,53.0,3.0,300.0,700.0,q,300.0,True,,,,,False,False,negative
392,,html-keyboard-response,392,657218,2,"{""Q0"":""It was very interesting!""}",3.04,"<font size=""100%"" weight=bold> correct! - $0.00 </font>",,None,,,,,,,,,,,,,,,,True,True,no_key
393,2408.0,html-keyboard-response,393,660141,2,"{""Q0"":""It was very interesting!""}",3.04,The total bonus amount of bonus you earned in this last period was $0.24.<br> Press any key to continue to the next step.,,32.0,,,,,,,,,,,,,,,,True,True,neutral
394,8392.0,instructions,394,668543,2,"{""Q0"":""It was very interesting!""}",3.04,,,None,,,,,,,,,,,,,,,,True,True,no_key
395,,html-keyboard-response,395,669456,2,"{""Q0"":""It was very interesting!""}",3.04,,,None,,,,,,,,,,,,,,,,True,True,no_key
396,851.0,audio-keyboard-response,396,670317,2,"{""Q0"":""It was very interesting!""}",3.04,sound/640,,32.0,generalization,space,positive,True,,3.0,300.0,700.0,q,,False,640.0,-60.0,60.0,,False,False,neutral
397,,html-keyboard-response,397,671335,2,"{""Q0"":""It was very interesting!""}",3.04,,,None,,,,,,,,,,,,,,,,True,True,no_key
398,,html-keyboard-response,398,671849,2,"{""Q0"":""It was very interesting!""}",3.04,,,None,,,,,,,,,,,,,,,,True,True,no_key
399,621.0,audio-keyboard-response,399,672473,2,"{""Q0"":""It was very interesting!""}",3.04,sound/500,,32.0,generalization,space,control,True,,3.0,300.0,700.0,q,,,,,61.0,,False,False,neutral
400,,html-keyboard-response,400,673491,2,"{""Q0"":""It was very interesting!""}",3.04,,,None,,,,,,,,,,,,,,,,True,True,no_key
401,,html-keyboard-response,401,674009,2,"{""Q0"":""It was very interesting!""}",3.04,,,None,,,,,,,,,,,,,,,,True,True,no_key
402,691.0,audio-keyboard-response,402,674700,2,"{""Q0"":""It was very interesting!""}",3.04,sound/200,,32.0,generalization,space,negative,True,,3.0,300.0,700.0,q,,False,200.0,-100.0,62.0,,False,False,neutral
403,,html-keyboard-response,403,675711,2,"{""Q0"":""It was very interesting!""}",3.04,,,None,,,,,,,,,,,,,,,,True,True,no_key
404,,html-keyboard-response,404,676223,2,"{""Q0"":""It was very interesting!""}",3.04,,,None,,,,,,,,,,,,,,,,True,True,no_key
405,949.0,audio-keyboard-response,405,677171,2,"{""Q0"":""It was very interesting!""}",3.04,sound/720,,81.0,generalization,space,positive,False,,3.0,300.0,700.0,q,,True,720.0,20.0,63.0,,False,False,positive
406,,html-keyboard-response,406,678178,2,"{""Q0"":""It was very interesting!""}",3.04,,,None,,,,,,,,,,,,,,,,True,True,no_key
407,,html-keyboard-response,407,678694,2,"{""Q0"":""It was very interesting!""}",3.04,,,None,,,,,,,,,,,,,,,,True,True,no_key
408,760.0,audio-keyboard-response,408,679466,2,"{""Q0"":""It was very interesting!""}",3.04,sound/400,,32.0,generalization,space,negative,True,,3.0,300.0,700.0,q,,False,400.0,100.0,64.0,,False,False,neutral
409,,html-keyboard-response,409,680485,2,"{""Q0"":""It was very interesting!""}",3.04,,,None,,,,,,,,,,,,,,,,True,True,no_key
410,,html-keyboard-response,410,680999,2,"{""Q0"":""It was very interesting!""}",3.04,,,None,,,,,,,,,,,,,,,,True,True,no_key
411,709.0,audio-keyboard-response,411,681725,2,"{""Q0"":""It was very interesting!""}",3.04,sound/700,,81.0,generalization,q,positive,True,,3.0,300.0,700.0,q,,True,,0.0,65.0,,False,False,positive
412,,html-keyboard-response,412,682744,2,"{""Q0"":""It was very interesting!""}",3.04,,,None,,,,,,,,,,,,,,,,True,True,no_key
413,,html-keyboard-response,413,683261,2,"{""Q0"":""It was very interesting!""}",3.04,,,None,,,,,,,,,,,,,,,,True,True,no_key
414,640.0,audio-keyboard-response,414,683908,2,"{""Q0"":""It was very interesting!""}",3.04,sound/280,,32.0,generalization,space,negative,True,,3.0,300.0,700.0,q,,False,280.0,-20.0,66.0,,False,False,neutral
415,,html-keyboard-response,415,684927,2,"{""Q0"":""It was very interesting!""}",3.04,,,None,,,,,,,,,,,,,,,,True,True,no_key
416,,html-keyboard-response,416,685445,2,"{""Q0"":""It was very interesting!""}",3.04,,,None,,,,,,,,,,,,,,,,True,True,no_key
417,560.0,audio-keyboard-response,417,686015,2,"{""Q0"":""It was very interesting!""}",3.04,sound/705,,81.0,generalization,space,positive,False,,3.0,300.0,700.0,q,,True,705.0,5.0,67.0,,False,False,positive
418,,html-keyboard-response,418,687025,2,"{""Q0"":""It was very interesting!""}",3.04,,,None,,,,,,,,,,,,,,,,True,True,no_key
419,,html-keyboard-response,419,687541,2,"{""Q0"":""It was very interesting!""}",3.04,,,None,,,,,,,,,,,,,,,,True,True,no_key
420,819.0,audio-keyboard-response,420,688369,2,"{""Q0"":""It was very interesting!""}",3.04,sound/300,,32.0,generalization,p,negative,False,,3.0,300.0,700.0,q,,False,,0.0,68.0,,False,False,neutral
421,,html-keyboard-response,421,689383,2,"{""Q0"":""It was very interesting!""}",3.04,,,None,,,,,,,,,,,,,,,,True,True,no_key
422,,html-keyboard-response,422,689902,2,"{""Q0"":""It was very interesting!""}",3.04,,,None,,,,,,,,,,,,,,,,True,True,no_key
423,619.0,audio-keyboard-response,423,690539,2,"{""Q0"":""It was very interesting!""}",3.04,sound/520,,32.0,generalization,space,control,True,,3.0,300.0,700.0,q,,,,,69.0,,False,False,neutral
424,,html-keyboard-response,424,691562,2,"{""Q0"":""It was very interesting!""}",3.04,,,None,,,,,,,,,,,,,,,,True,True,no_key
425,,html-keyboard-response,425,692081,2,"{""Q0"":""It was very interesting!""}",3.04,,,None,,,,,,,,,,,,,,,,True,True,no_key
426,581.0,audio-keyboard-response,426,692666,2,"{""Q0"":""It was very interesting!""}",3.04,sound/600,,32.0,generalization,space,positive,True,,3.0,300.0,700.0,q,,False,600.0,-100.0,70.0,,False,False,neutral
427,,html-keyboard-response,427,693679,2,"{""Q0"":""It was very interesting!""}",3.04,,,None,,,,,,,,,,,,,,,,True,True,no_key
428,,html-keyboard-response,428,694199,2,"{""Q0"":""It was very interesting!""}",3.04,,,None,,,,,,,,,,,,,,,,True,True,no_key
429,581.0,audio-keyboard-response,429,694788,2,"{""Q0"":""It was very interesting!""}",3.04,sound/695,,81.0,generalization,space,positive,False,,3.0,300.0,700.0,q,,True,695.0,-5.0,71.0,,False,False,positive
430,,html-keyboard-response,430,695811,2,"{""Q0"":""It was very interesting!""}",3.04,,,None,,,,,,,,,,,,,,,,True,True,no_key
431,,html-keyboard-response,431,696327,2,"{""Q0"":""It was very interesting!""}",3.04,,,None,,,,,,,,,,,,,,,,True,True,no_key
432,811.0,audio-keyboard-response,432,697145,2,"{""Q0"":""It was very interesting!""}",3.04,sound/680,,81.0,generalization,space,positive,False,,3.0,300.0,700.0,q,,True,680.0,-20.0,72.0,,False,False,positive
433,,html-keyboard-response,433,698157,2,"{""Q0"":""It was very interesting!""}",3.04,,,None,,,,,,,,,,,,,,,,True,True,no_key
434,,html-keyboard-response,434,698671,2,"{""Q0"":""It was very interesting!""}",3.04,,,None,,,,,,,,,,,,,,,,True,True,no_key
435,1149.0,audio-keyboard-response,435,699824,2,"{""Q0"":""It was very interesting!""}",3.04,sound/700,,81.0,generalization,q,positive,True,,3.0,300.0,700.0,q,,True,,0.0,73.0,,False,False,positive
436,,html-keyboard-response,436,700843,2,"{""Q0"":""It was very interesting!""}",3.04,,,None,,,,,,,,,,,,,,,,True,True,no_key
437,,html-keyboard-response,437,701359,2,"{""Q0"":""It was very interesting!""}",3.04,,,None,,,,,,,,,,,,,,,,True,True,no_key
438,752.0,audio-keyboard-response,438,702111,2,"{""Q0"":""It was very interesting!""}",3.04,sound/240,,32.0,generalization,space,negative,True,,3.0,300.0,700.0,q,,False,240.0,-60.0,74.0,,False,False,neutral
439,,html-keyboard-response,439,703129,2,"{""Q0"":""It was very interesting!""}",3.04,,,None,,,,,,,,,,,,,,,,True,True,no_key
440,,html-keyboard-response,440,703643,2,"{""Q0"":""It was very interesting!""}",3.04,,,None,,,,,,,,,,,,,,,,True,True,no_key
441,669.0,audio-keyboard-response,441,704325,2,"{""Q0"":""It was very interesting!""}",3.04,sound/295,,32.0,generalization,space,negative,True,,3.0,300.0,700.0,q,,False,295.0,-5.0,75.0,,False,False,neutral
442,,html-keyboard-response,442,705337,2,"{""Q0"":""It was very interesting!""}",3.04,,,None,,,,,,,,,,,,,,,,True,True,no_key
443,,html-keyboard-response,443,705853,2,"{""Q0"":""It was very interesting!""}",3.04,,,None,,,,,,,,,,,,,,,,True,True,no_key
444,859.0,audio-keyboard-response,444,706725,2,"{""Q0"":""It was very interesting!""}",3.04,sound/480,,81.0,generalization,space,control,False,,3.0,300.0,700.0,q,,,,,76.0,,False,False,positive
445,,html-keyboard-response,445,707734,2,"{""Q0"":""It was very interesting!""}",3.04,,,None,,,,,,,,,,,,,,,,True,True,no_key
446,,html-keyboard-response,446,708249,2,"{""Q0"":""It was very interesting!""}",3.04,,,None,,,,,,,,,,,,,,,,True,True,no_key
447,1011.0,audio-keyboard-response,447,709262,2,"{""Q0"":""It was very interesting!""}",3.04,sound/305,,32.0,generalization,space,negative,True,,3.0,300.0,700.0,q,,False,305.0,5.0,77.0,,False,False,neutral
448,,html-keyboard-response,448,710273,2,"{""Q0"":""It was very interesting!""}",3.04,,,None,,,,,,,,,,,,,,,,True,True,no_key
449,,html-keyboard-response,449,710791,2,"{""Q0"":""It was very interesting!""}",3.04,,,None,,,,,,,,,,,,,,,,True,True,no_key
450,488.0,audio-keyboard-response,450,711286,2,"{""Q0"":""It was very interesting!""}",3.04,sound/700,,81.0,generalization,q,positive,True,,3.0,300.0,700.0,q,,True,,0.0,78.0,,False,False,positive
451,,html-keyboard-response,451,712295,2,"{""Q0"":""It was very interesting!""}",3.04,,,None,,,,,,,,,,,,,,,,True,True,no_key
452,,html-keyboard-response,452,712826,2,"{""Q0"":""It was very interesting!""}",3.04,,,None,,,,,,,,,,,,,,,,True,True,no_key
453,600.0,audio-keyboard-response,453,713435,2,"{""Q0"":""It was very interesting!""}",3.04,sound/360,,32.0,generalization,space,negative,True,,3.0,300.0,700.0,q,,False,360.0,60.0,79.0,,False,False,neutral
454,,html-keyboard-response,454,714459,2,"{""Q0"":""It was very interesting!""}",3.04,,,None,,,,,,,,,,,,,,,,True,True,no_key
455,,html-keyboard-response,455,714976,2,"{""Q0"":""It was very interesting!""}",3.04,,,None,,,,,,,,,,,,,,,,True,True,no_key
456,1080.0,audio-keyboard-response,456,716064,2,"{""Q0"":""It was very interesting!""}",3.04,sound/320,,32.0,generalization,space,negative,True,,3.0,300.0,700.0,q,,False,320.0,20.0,80.0,,False,False,neutral
457,,html-keyboard-response,457,717088,2,"{""Q0"":""It was very interesting!""}",3.04,,,None,,,,,,,,,,,,,,,,True,True,no_key
458,,html-keyboard-response,458,717605,2,"{""Q0"":""It was very interesting!""}",3.04,,,None,,,,,,,,,,,,,,,,True,True,no_key
459,680.0,audio-keyboard-response,459,718310,2,"{""Q0"":""It was very interesting!""}",3.04,sound/300,,32.0,generalization,p,negative,False,,3.0,300.0,700.0,q,,False,,0.0,81.0,,False,False,neutral
460,,html-keyboard-response,460,719338,2,"{""Q0"":""It was very interesting!""}",3.04,,,None,,,,,,,,,,,,,,,,True,True,no_key
461,,html-keyboard-response,461,719858,2,"{""Q0"":""It was very interesting!""}",3.04,,,None,,,,,,,,,,,,,,,,True,True,no_key
462,1051.0,audio-keyboard-response,462,720910,2,"{""Q0"":""It was very interesting!""}",3.04,sound/300,,80.0,generalization,p,negative,True,,3.0,300.0,700.0,q,,True,,0.0,82.0,,False,False,negative
463,,html-keyboard-response,463,721931,2,"{""Q0"":""It was very interesting!""}",3.04,,,None,,,,,,,,,,,,,,,,True,True,no_key
464,,html-keyboard-response,464,722460,2,"{""Q0"":""It was very interesting!""}",3.04,,,None,,,,,,,,,,,,,,,,True,True,no_key
465,800.0,audio-keyboard-response,465,723269,2,"{""Q0"":""It was very interesting!""}",3.04,sound/880,,32.0,generalization,space,control,True,,3.0,300.0,700.0,q,,,,,83.0,,False,False,neutral
466,,html-keyboard-response,466,724292,2,"{""Q0"":""It was very interesting!""}",3.04,,,None,,,,,,,,,,,,,,,,True,True,no_key
467,,html-keyboard-response,467,724812,2,"{""Q0"":""It was very interesting!""}",3.04,,,None,,,,,,,,,,,,,,,,True,True,no_key
468,459.0,audio-keyboard-response,468,725282,2,"{""Q0"":""It was very interesting!""}",3.04,sound/800,,32.0,generalization,space,positive,True,,3.0,300.0,700.0,q,,False,800.0,100.0,84.0,,False,False,neutral
469,,html-keyboard-response,469,726309,2,"{""Q0"":""It was very interesting!""}",3.04,,,None,,,,,,,,,,,,,,,,True,True,no_key
470,,html-keyboard-response,470,726822,2,"{""Q0"":""It was very interesting!""}",3.04,,,None,,,,,,,,,,,,,,,,True,True,no_key
471,499.0,audio-keyboard-response,471,727324,2,"{""Q0"":""It was very interesting!""}",3.04,sound/760,,32.0,generalization,space,positive,True,,3.0,300.0,700.0,q,,False,760.0,60.0,85.0,,False,False,neutral
472,,html-keyboard-response,472,728344,2,"{""Q0"":""It was very interesting!""}",3.04,,,None,,,,,,,,,,,,,,,,True,True,no_key
473,,html-keyboard-response,473,728865,2,"{""Q0"":""It was very interesting!""}",3.04,,,None,,,,,,,,,,,,,,,,True,True,no_key
474,589.0,audio-keyboard-response,474,729460,2,"{""Q0"":""It was very interesting!""}",3.04,sound/900,,32.0,generalization,space,control,True,,3.0,300.0,700.0,q,,,,,86.0,,False,False,neutral
475,,html-keyboard-response,475,730489,2,"{""Q0"":""It was very interesting!""}",3.04,,,None,,,,,,,,,,,,,,,,True,True,no_key
476,,html-keyboard-response,476,731008,2,"{""Q0"":""It was very interesting!""}",3.04,,,None,,,,,,,,,,,,,,,,True,True,no_key
477,781.0,audio-keyboard-response,477,731794,2,"{""Q0"":""It was very interesting!""}",3.04,sound/300,,80.0,generalization,p,negative,True,,3.0,300.0,700.0,q,,True,,0.0,87.0,,False,False,negative
478,,html-keyboard-response,478,732811,2,"{""Q0"":""It was very interesting!""}",3.04,,,None,,,,,,,,,,,,,,,,True,True,no_key
479,,html-keyboard-response,479,733328,2,"{""Q0"":""It was very interesting!""}",3.04,,,None,,,,,,,,,,,,,,,,True,True,no_key
480,920.0,audio-keyboard-response,480,734266,2,"{""Q0"":""It was very interesting!""}",3.04,sound/920,,32.0,generalization,space,control,True,,3.0,300.0,700.0,q,,,,,88.0,,False,False,neutral
481,,html-keyboard-response,481,735284,2,"{""Q0"":""It was very interesting!""}",3.04,,,None,,,,,,,,,,,,,,,,True,True,no_key
482,,html-keyboard-response,482,735817,2,"{""Q0"":""It was very interesting!""}",3.04,,,None,,,,,,,,,,,,,,,,True,True,no_key
483,669.0,audio-keyboard-response,483,736496,2,"{""Q0"":""It was very interesting!""}",3.04,sound/700,,32.0,generalization,q,positive,False,,3.0,300.0,700.0,q,,False,,0.0,89.0,,False,False,neutral
484,,html-keyboard-response,484,737512,2,"{""Q0"":""It was very interesting!""}",3.04,,,None,,,,,,,,,,,,,,,,True,True,no_key
485,1588.0,html-keyboard-response,485,739107,2,"{""Q0"":""It was very interesting!""}",3.04,bonus earned during this period: $0.88<br><br>Press any key to continue.,,32.0,,,,,,,,,,,,,,,,True,True,neutral
486,22721.0,survey-text,486,761839,2,"{""Q0"":""It was very interesting!""}",3.04,,,None,,,,,,,,,,,,,,,"{""Q0"":""It was very interesting!""}",True,True,no_key
0,1600602.0,instructions,0,1600606,5,"{""Q0"":""""}",3.44,,,None,,,,,,,,,,,,,,,,True,True,no_key
1,11213.0,html-button-response,1,1612828,5,"{""Q0"":""""}",3.44,"<p>Before we begin this experiment, please make sure your sound is on and un-muted. When you are ready, press the button below!</p>",0.0,None,,,,,,,,,,,,,,,,True,True,no_key
2,219887.0,instructions,2,1832716,5,"{""Q0"":""""}",3.44,,,None,,,,,,,,,,,,,,,,True,True,no_key
3,5146.0,audio-button-response,3,1838868,5,"{""Q0"":""""}",3.44,sound/500,0.0,None,,,,,,,,,,,,,,,,True,True,no_key
4,2463.0,audio-button-response,4,1841332,5,"{""Q0"":""""}",3.44,sound/500,0.0,None,,,,,,,,,,,,,,,,True,True,no_key
5,2246.0,audio-button-response,5,1843579,5,"{""Q0"":""""}",3.44,sound/500,0.0,None,,,,,,,,,,,,,,,,True,True,no_key
6,13952.0,instructions,6,1857532,5,"{""Q0"":""""}",3.44,,,None,,,,,,,,,,,,,,,,True,True,no_key
7,,html-keyboard-response,7,1858951,5,"{""Q0"":""""}",3.44,"<div style=""font-size:120%; top:20%""></div>",,None,,,,,,,,,,,,,,,,True,True,no_key
8,,audio-keyboard-response,8,1861464,5,"{""Q0"":""""}",3.44,sound/700,,None,acquisition,anything,positive,True,,1.0,300.0,700.0,p,700.0,,,,,,False,False,no_key
9,,html-keyboard-response,9,1862580,5,"{""Q0"":""""}",3.44,"<font size=""100%"" weight=bold> correct! + $0.04</font>",,None,,,,,,,,,,,,,,,,True,True,no_key
10,,html-keyboard-response,10,1864096,5,"{""Q0"":""""}",3.44,"<div style=""font-size:120%; top:20%""></div>",,None,,,,,,,,,,,,,,,,True,True,no_key
11,,audio-keyboard-response,11,1866598,5,"{""Q0"":""""}",3.44,sound/300,,None,acquisition,q,negative,False,0.0,1.0,300.0,700.0,p,300.0,,,,,,False,False,no_key
12,,html-keyboard-response,12,1867714,5,"{""Q0"":""""}",3.44,"<font size=""100%"" weight=bold> incorrect! - $0.04</font>",,None,,,,,,,,,,,,,,,,True,True,no_key
13,,html-keyboard-response,13,1869235,5,"{""Q0"":""""}",3.44,"<div style=""font-size:120%; top:20%""></div>",,None,,,,,,,,,,,,,,,,True,True,no_key
14,,audio-keyboard-response,14,1871741,5,"{""Q0"":""""}",3.44,sound/700,,None,acquisition,p,positive,False,1.0,1.0,300.0,700.0,p,700.0,,,,,,False,False,no_key
15,,html-keyboard-response,15,1872857,5,"{""Q0"":""""}",3.44,"<font size=""100%"" weight=bold> incorrect! + $0.00 </font>",,None,,,,,,,,,,,,,,,,True,True,no_key
16,,html-keyboard-response,16,1874374,5,"{""Q0"":""""}",3.44,"<div style=""font-size:120%; top:20%""></div>",,None,,,,,,,,,,,,,,,,True,True,no_key
17,,audio-keyboard-response,17,1876886,5,"{""Q0"":""""}",3.44,sound/700,,None,acquisition,p,positive,False,2.0,1.0,300.0,700.0,p,700.0,,,,,,False,False,no_key
18,,html-keyboard-response,18,1877991,5,"{""Q0"":""""}",3.44,"<font size=""100%"" weight=bold> incorrect! + $0.00 </font>",,None,,,,,,,,,,,,,,,,True,True,no_key
19,,html-keyboard-response,19,1879514,5,"{""Q0"":""""}",3.44,"<div style=""font-size:120%; top:20%""></div>",,None,,,,,,,,,,,,,,,,True,True,no_key
20,539.0,audio-keyboard-response,20,1880057,5,"{""Q0"":""""}",3.44,sound/700,,80.0,acquisition,p,positive,True,3.0,1.0,300.0,700.0,p,700.0,True,,,,,False,False,positive
21,,html-keyboard-response,21,1881180,5,"{""Q0"":""""}",3.44,"<font size=""100%"" weight=bold> correct! + $0.04</font>",,None,,,,,,,,,,,,,,,,True,True,no_key
22,,html-keyboard-response,22,1882700,5,"{""Q0"":""""}",3.44,"<div style=""font-size:120%; top:20%""></div>",,None,,,,,,,,,,,,,,,,True,True,no_key
23,2501.0,audio-keyboard-response,23,1885196,5,"{""Q0"":""""}",3.44,sound/500,,81.0,acquisition,anything,neutral,False,4.0,1.0,300.0,700.0,p,500.0,,,,,,False,False,negative
24,,html-keyboard-response,24,1886314,5,"{""Q0"":""""}",3.44,"<font size=""100%"">neutral! so no change in bonus.</font>",,None,,,,,,,,,,,,,,,,True,True,no_key
25,,html-keyboard-response,25,1887833,5,"{""Q0"":""""}",3.44,"<div style=""font-size:120%; top:20%""></div>",,None,,,,,,,,,,,,,,,,True,True,no_key
26,1451.0,audio-keyboard-response,26,1889294,5,"{""Q0"":""""}",3.44,sound/500,,81.0,acquisition,anything,neutral,False,5.0,1.0,300.0,700.0,p,500.0,,,,,,False,False,negative
27,,html-keyboard-response,27,1890419,5,"{""Q0"":""""}",3.44,"<font size=""100%"">neutral! so no change in bonus.</font>",,None,,,,,,,,,,,,,,,,True,True,no_key
28,,html-keyboard-response,28,1891933,5,"{""Q0"":""""}",3.44,"<div style=""font-size:120%; top:20%""></div>",,None,,,,,,,,,,,,,,,,True,True,no_key
29,1552.0,audio-keyboard-response,29,1893490,5,"{""Q0"":""""}",3.44,sound/300,,81.0,acquisition,q,negative,True,6.0,1.0,300.0,700.0,p,300.0,True,,,,,False,False,negative
30,,html-keyboard-response,30,1894616,5,"{""Q0"":""""}",3.44,"<font size=""100%"" weight=bold> correct! - $0.00 </font>",,None,,,,,,,,,,,,,,,,True,True,no_key
31,,html-keyboard-response,31,1896138,5,"{""Q0"":""""}",3.44,"<div style=""font-size:120%; top:20%""></div>",,None,,,,,,,,,,,,,,,,True,True,no_key
32,1272.0,audio-keyboard-response,32,1898652,5,"{""Q0"":""""}",3.44,sound/300,,81.0,acquisition,anything,negative,False,,1.0,300.0,700.0,p,300.0,,,,,,False,False,negative
33,,html-keyboard-response,33,1899770,5,"{""Q0"":""""}",3.44,"<font size=""100%"" weight=bold> incorrect! - $0.04</font>",,None,,,,,,,,,,,,,,,,True,True,no_key
34,,html-keyboard-response,34,1901284,5,"{""Q0"":""""}",3.44,"<div style=""font-size:120%; top:20%""></div>",,None,,,,,,,,,,,,,,,,True,True,no_key
35,,audio-keyboard-response,35,1903797,5,"{""Q0"":""""}",3.44,sound/500,,None,acquisition,anything,neutral,True,7.0,1.0,300.0,700.0,p,500.0,,,,,,False,False,no_key
36,,html-keyboard-response,36,1904913,5,"{""Q0"":""""}",3.44,"<font size=""100%"">neutral! so no change in bonus.</font>",,None,,,,,,,,,,,,,,,,True,True,no_key
37,,html-keyboard-response,37,1906431,5,"{""Q0"":""""}",3.44,"<div style=""font-size:120%; top:20%""></div>",,None,,,,,,,,,,,,,,,,True,True,no_key
38,1200.0,audio-keyboard-response,38,1907629,5,"{""Q0"":""""}",3.44,sound/300,,81.0,acquisition,q,negative,True,8.0,1.0,300.0,700.0,p,300.0,True,,,,,False,False,negative
39,,html-keyboard-response,39,1908761,5,"{""Q0"":""""}",3.44,"<font size=""100%"" weight=bold> correct! - $0.00 </font>",,None,,,,,,,,,,,,,,,,True,True,no_key
40,,html-keyboard-response,40,1910286,5,"{""Q0"":""""}",3.44,"<div style=""font-size:120%; top:20%""></div>",,None,,,,,,,,,,,,,,,,True,True,no_key
41,1848.0,audio-keyboard-response,41,1912796,5,"{""Q0"":""""}",3.44,sound/300,,81.0,acquisition,anything,negative,False,,1.0,300.0,700.0,p,300.0,,,,,,False,False,negative
42,,html-keyboard-response,42,1913914,5,"{""Q0"":""""}",3.44,"<font size=""100%"" weight=bold> incorrect! - $0.04</font>",,None,,,,,,,,,,,,,,,,True,True,no_key
43,,html-keyboard-response,43,1915437,5,"{""Q0"":""""}",3.44,"<div style=""font-size:120%; top:20%""></div>",,None,,,,,,,,,,,,,,,,True,True,no_key
44,,audio-keyboard-response,44,1917940,5,"{""Q0"":""""}",3.44,sound/500,,None,acquisition,anything,neutral,True,9.0,1.0,300.0,700.0,p,500.0,,,,,,False,False,no_key
45,,html-keyboard-response,45,1919055,5,"{""Q0"":""""}",3.44,"<font size=""100%"">neutral! so no change in bonus.</font>",,None,,,,,,,,,,,,,,,,True,True,no_key
46,,html-keyboard-response,46,1920567,5,"{""Q0"":""""}",3.44,"<div style=""font-size:120%; top:20%""></div>",,None,,,,,,,,,,,,,,,,True,True,no_key
47,979.0,audio-keyboard-response,47,1921546,5,"{""Q0"":""""}",3.44,sound/700,,80.0,acquisition,p,positive,True,10.0,1.0,300.0,700.0,p,700.0,True,,,,,False,False,positive
48,,html-keyboard-response,48,1922669,5,"{""Q0"":""""}",3.44,"<font size=""100%"" weight=bold> correct! + $0.04</font>",,None,,,,,,,,,,,,,,,,True,True,no_key
49,,html-keyboard-response,49,1924193,5,"{""Q0"":""""}",3.44,"<div style=""font-size:120%; top:20%""></div>",,None,,,,,,,,,,,,,,,,True,True,no_key
50,1000.0,audio-keyboard-response,50,1926702,5,"{""Q0"":""""}",3.44,sound/700,,80.0,acquisition,anything,positive,True,,1.0,300.0,700.0,p,700.0,,,,,,False,False,positive
51,,html-keyboard-response,51,1927823,5,"{""Q0"":""""}",3.44,"<font size=""100%"" weight=bold> correct! + $0.04</font>",,None,,,,,,,,,,,,,,,,True,True,no_key
52,,html-keyboard-response,52,1929341,5,"{""Q0"":""""}",3.44,"<div style=""font-size:120%; top:20%""></div>",,None,,,,,,,,,,,,,,,,True,True,no_key
53,851.0,audio-keyboard-response,53,1930193,5,"{""Q0"":""""}",3.44,sound/700,,80.0,acquisition,p,positive,True,11.0,1.0,300.0,700.0,p,700.0,True,,,,,False,False,positive
54,,html-keyboard-response,54,1931312,5,"{""Q0"":""""}",3.44,"<font size=""100%"" weight=bold> correct! + $0.04</font>",,None,,,,,,,,,,,,,,,,True,True,no_key
55,,html-keyboard-response,55,1932831,5,"{""Q0"":""""}",3.44,"<div style=""font-size:120%; top:20%""></div>",,None,,,,,,,,,,,,,,,,True,True,no_key
56,,audio-keyboard-response,56,1935341,5,"{""Q0"":""""}",3.44,sound/500,,None,acquisition,anything,neutral,True,12.0,1.0,300.0,700.0,p,500.0,,,,,,False,False,no_key
57,,html-keyboard-response,57,1936459,5,"{""Q0"":""""}",3.44,"<font size=""100%"">neutral! so no change in bonus.</font>",,None,,,,,,,,,,,,,,,,True,True,no_key
58,,html-keyboard-response,58,1937977,5,"{""Q0"":""""}",3.44,"<div style=""font-size:120%; top:20%""></div>",,None,,,,,,,,,,,,,,,,True,True,no_key
59,,audio-keyboard-response,59,1940491,5,"{""Q0"":""""}",3.44,sound/500,,None,acquisition,anything,neutral,True,13.0,1.0,300.0,700.0,p,500.0,,,,,,False,False,no_key
60,,html-keyboard-response,60,1941610,5,"{""Q0"":""""}",3.44,"<font size=""100%"">neutral! so no change in bonus.</font>",,None,,,,,,,,,,,,,,,,True,True,no_key
61,,html-keyboard-response,61,1943126,5,"{""Q0"":""""}",3.44,"<div style=""font-size:120%; top:20%""></div>",,None,,,,,,,,,,,,,,,,True,True,no_key
62,619.0,audio-keyboard-response,62,1943751,5,"{""Q0"":""""}",3.44,sound/300,,81.0,acquisition,q,negative,True,14.0,1.0,300.0,700.0,p,300.0,True,,,,,False,False,negative
63,,html-keyboard-response,63,1944864,5,"{""Q0"":""""}",3.44,"<font size=""100%"" weight=bold> correct! - $0.00 </font>",,None,,,,,,,,,,,,,,,,True,True,no_key
64,,html-keyboard-response,64,1946390,5,"{""Q0"":""""}",3.44,"<div style=""font-size:120%; top:20%""></div>",,None,,,,,,,,,,,,,,,,True,True,no_key
65,781.0,audio-keyboard-response,65,1947168,5,"{""Q0"":""""}",3.44,sound/300,,81.0,acquisition,q,negative,True,15.0,1.0,300.0,700.0,p,300.0,True,,,,,False,False,negative
66,,html-keyboard-response,66,1948294,5,"{""Q0"":""""}",3.44,"<font size=""100%"" weight=bold> correct! - $0.00 </font>",,None,,,,,,,,,,,,,,,,True,True,no_key
67,,html-keyboard-response,67,1949820,5,"{""Q0"":""""}",3.44,"<div style=""font-size:120%; top:20%""></div>",,None,,,,,,,,,,,,,,,,True,True,no_key
68,981.0,audio-keyboard-response,68,1950795,5,"{""Q0"":""""}",3.44,sound/700,,80.0,acquisition,p,positive,True,16.0,1.0,300.0,700.0,p,700.0,True,,,,,False,False,positive
69,,html-keyboard-response,69,1951917,5,"{""Q0"":""""}",3.44,"<font size=""100%"" weight=bold> correct! + $0.04</font>",,None,,,,,,,,,,,,,,,,True,True,no_key
70,,html-keyboard-response,70,1953436,5,"{""Q0"":""""}",3.44,"<div style=""font-size:120%; top:20%""></div>",,None,,,,,,,,,,,,,,,,True,True,no_key
71,629.0,audio-keyboard-response,71,1954071,5,"{""Q0"":""""}",3.44,sound/300,,81.0,acquisition,q,negative,True,17.0,1.0,300.0,700.0,p,300.0,True,,,,,False,False,negative
72,,html-keyboard-response,72,1955185,5,"{""Q0"":""""}",3.44,"<font size=""100%"" weight=bold> correct! - $0.00 </font>",,None,,,,,,,,,,,,,,,,True,True,no_key
73,5452.0,html-keyboard-response,73,1961155,5,"{""Q0"":""""}",3.44,The total bonus amount of bonus you earned in this last period was $0.12.<br> Press any key to continue to the next step.,,32.0,,,,,,,,,,,,,,,,True,True,neutral
74,54383.0,instructions,74,2015540,5,"{""Q0"":""""}",3.44,,,None,,,,,,,,,,,,,,,,True,True,no_key
75,,html-keyboard-response,75,2016446,5,"{""Q0"":""""}",3.44,,,None,,,,,,,,,,,,,,,,True,True,no_key
76,1552.0,audio-keyboard-response,76,2018874,5,"{""Q0"":""""}",3.44,sound/700,,80.0,generalization,p,positive,True,,1.0,300.0,700.0,p,,True,,0.0,0.0,,False,False,positive
77,,html-keyboard-response,77,2019885,5,"{""Q0"":""""}",3.44,,,None,,,,,,,,,,,,,,,,True,True,no_key
78,,html-keyboard-response,78,2020403,5,"{""Q0"":""""}",3.44,,,None,,,,,,,,,,,,,,,,True,True,no_key
79,941.0,audio-keyboard-response,79,2021345,5,"{""Q0"":""""}",3.44,sound/700,,80.0,generalization,p,positive,True,,1.0,300.0,700.0,p,,True,,0.0,1.0,,False,False,positive
80,,html-keyboard-response,80,2022355,5,"{""Q0"":""""}",3.44,,,None,,,,,,,,,,,,,,,,True,True,no_key
81,,html-keyboard-response,81,2022870,5,"{""Q0"":""""}",3.44,,,None,,,,,,,,,,,,,,,,True,True,no_key
82,1459.0,audio-keyboard-response,82,2024333,5,"{""Q0"":""""}",3.44,sound/295,,32.0,generalization,space,negative,True,,1.0,300.0,700.0,p,,False,295.0,-5.0,2.0,,False,False,neutral
83,,html-keyboard-response,83,2025343,5,"{""Q0"":""""}",3.44,,,None,,,,,,,,,,,,,,,,True,True,no_key
84,,html-keyboard-response,84,2025860,5,"{""Q0"":""""}",3.44,,,None,,,,,,,,,,,,,,,,True,True,no_key
85,949.0,audio-keyboard-response,85,2026815,5,"{""Q0"":""""}",3.44,sound/700,,80.0,generalization,p,positive,True,,1.0,300.0,700.0,p,,True,,0.0,3.0,,False,False,positive
86,,html-keyboard-response,86,2027822,5,"{""Q0"":""""}",3.44,,,None,,,,,,,,,,,,,,,,True,True,no_key
87,,html-keyboard-response,87,2028337,5,"{""Q0"":""""}",3.44,,,None,,,,,,,,,,,,,,,,True,True,no_key
88,1509.0,audio-keyboard-response,88,2029849,5,"{""Q0"":""""}",3.44,sound/880,,32.0,generalization,space,control,True,,1.0,300.0,700.0,p,,,,,4.0,,False,False,neutral
89,,html-keyboard-response,89,2030858,5,"{""Q0"":""""}",3.44,,,None,,,,,,,,,,,,,,,,True,True,no_key
90,,html-keyboard-response,90,2031375,5,"{""Q0"":""""}",3.44,,,None,,,,,,,,,,,,,,,,True,True,no_key
91,749.0,audio-keyboard-response,91,2032134,5,"{""Q0"":""""}",3.44,sound/800,,32.0,generalization,space,positive,True,,1.0,300.0,700.0,p,,False,800.0,100.0,5.0,,False,False,neutral
92,,html-keyboard-response,92,2033144,5,"{""Q0"":""""}",3.44,,,None,,,,,,,,,,,,,,,,True,True,no_key
93,,html-keyboard-response,93,2033658,5,"{""Q0"":""""}",3.44,,,None,,,,,,,,,,,,,,,,True,True,no_key
94,1059.0,audio-keyboard-response,94,2034718,5,"{""Q0"":""""}",3.44,sound/640,,81.0,generalization,space,positive,False,,1.0,300.0,700.0,p,,False,640.0,-60.0,6.0,,False,False,negative
95,,html-keyboard-response,95,2035729,5,"{""Q0"":""""}",3.44,,,None,,,,,,,,,,,,,,,,True,True,no_key
96,,html-keyboard-response,96,2036242,5,"{""Q0"":""""}",3.44,,,None,,,,,,,,,,,,,,,,True,True,no_key
97,1301.0,audio-keyboard-response,97,2037546,5,"{""Q0"":""""}",3.44,sound/900,,32.0,generalization,space,control,True,,1.0,300.0,700.0,p,,,,,7.0,,False,False,neutral
98,,html-keyboard-response,98,2038551,5,"{""Q0"":""""}",3.44,,,None,,,,,,,,,,,,,,,,True,True,no_key
99,,html-keyboard-response,99,2039060,5,"{""Q0"":""""}",3.44,,,None,,,,,,,,,,,,,,,,True,True,no_key
100,1120.0,audio-keyboard-response,100,2040179,5,"{""Q0"":""""}",3.44,sound/300,,81.0,generalization,q,negative,True,,1.0,300.0,700.0,p,,True,,0.0,8.0,,False,False,negative
101,,html-keyboard-response,101,2041191,5,"{""Q0"":""""}",3.44,,,None,,,,,,,,,,,,,,,,True,True,no_key
102,,html-keyboard-response,102,2041706,5,"{""Q0"":""""}",3.44,,,None,,,,,,,,,,,,,,,,True,True,no_key
103,1288.0,audio-keyboard-response,103,2043005,5,"{""Q0"":""""}",3.44,sound/920,,32.0,generalization,space,control,True,,1.0,300.0,700.0,p,,,,,9.0,,False,False,neutral
104,,html-keyboard-response,104,2044012,5,"{""Q0"":""""}",3.44,,,None,,,,,,,,,,,,,,,,True,True,no_key
105,,html-keyboard-response,105,2044522,5,"{""Q0"":""""}",3.44,,,None,,,,,,,,,,,,,,,,True,True,no_key
106,1221.0,audio-keyboard-response,106,2045746,5,"{""Q0"":""""}",3.44,sound/300,,81.0,generalization,q,negative,True,,1.0,300.0,700.0,p,,True,,0.0,10.0,,False,False,negative
107,,html-keyboard-response,107,2046757,5,"{""Q0"":""""}",3.44,,,None,,,,,,,,,,,,,,,,True,True,no_key
108,,html-keyboard-response,108,2047261,5,"{""Q0"":""""}",3.44,,,None,,,,,,,,,,,,,,,,True,True,no_key
109,611.0,audio-keyboard-response,109,2047872,5,"{""Q0"":""""}",3.44,sound/300,,81.0,generalization,q,negative,True,,1.0,300.0,700.0,p,,True,,0.0,11.0,,False,False,negative
110,,html-keyboard-response,110,2048885,5,"{""Q0"":""""}",3.44,,,None,,,,,,,,,,,,,,,,True,True,no_key
111,,html-keyboard-response,111,2049400,5,"{""Q0"":""""}",3.44,,,None,,,,,,,,,,,,,,,,True,True,no_key
112,1680.0,audio-keyboard-response,112,2051087,5,"{""Q0"":""""}",3.44,sound/240,,32.0,generalization,space,negative,True,,1.0,300.0,700.0,p,,False,240.0,-60.0,12.0,,False,False,neutral
113,,html-keyboard-response,113,2052099,5,"{""Q0"":""""}",3.44,,,None,,,,,,,,,,,,,,,,True,True,no_key
114,,html-keyboard-response,114,2052615,5,"{""Q0"":""""}",3.44,,,None,,,,,,,,,,,,,,,,True,True,no_key
115,1160.0,audio-keyboard-response,115,2053779,5,"{""Q0"":""""}",3.44,sound/680,,80.0,generalization,space,positive,False,,1.0,300.0,700.0,p,,True,680.0,-20.0,13.0,,False,False,positive
116,,html-keyboard-response,116,2054788,5,"{""Q0"":""""}",3.44,,,None,,,,,,,,,,,,,,,,True,True,no_key
117,,html-keyboard-response,117,2055299,5,"{""Q0"":""""}",3.44,,,None,,,,,,,,,,,,,,,,True,True,no_key
118,1120.0,audio-keyboard-response,118,2056422,5,"{""Q0"":""""}",3.44,sound/520,,32.0,generalization,space,control,True,,1.0,300.0,700.0,p,,,,,14.0,,False,False,neutral
119,,html-keyboard-response,119,2057431,5,"{""Q0"":""""}",3.44,,,None,,,,,,,,,,,,,,,,True,True,no_key
120,,html-keyboard-response,120,2057944,5,"{""Q0"":""""}",3.44,,,None,,,,,,,,,,,,,,,,True,True,no_key
121,949.0,audio-keyboard-response,121,2058892,5,"{""Q0"":""""}",3.44,sound/720,,32.0,generalization,space,positive,True,,1.0,300.0,700.0,p,,False,720.0,20.0,15.0,,False,False,neutral
122,,html-keyboard-response,122,2059900,5,"{""Q0"":""""}",3.44,,,None,,,,,,,,,,,,,,,,True,True,no_key
123,,html-keyboard-response,123,2060416,5,"{""Q0"":""""}",3.44,,,None,,,,,,,,,,,,,,,,True,True,no_key
124,1051.0,audio-keyboard-response,124,2061476,5,"{""Q0"":""""}",3.44,sound/305,,81.0,generalization,space,negative,False,,1.0,300.0,700.0,p,,True,305.0,5.0,16.0,,False,False,negative
125,,html-keyboard-response,125,2062484,5,"{""Q0"":""""}",3.44,,,None,,,,,,,,,,,,,,,,True,True,no_key
126,,html-keyboard-response,126,2063000,5,"{""Q0"":""""}",3.44,,,None,,,,,,,,,,,,,,,,True,True,no_key
127,1181.0,audio-keyboard-response,127,2064182,5,"{""Q0"":""""}",3.44,sound/400,,32.0,generalization,space,negative,True,,1.0,300.0,700.0,p,,False,400.0,100.0,17.0,,False,False,neutral
128,,html-keyboard-response,128,2065186,5,"{""Q0"":""""}",3.44,,,None,,,,,,,,,,,,,,,,True,True,no_key
129,,html-keyboard-response,129,2065692,5,"{""Q0"":""""}",3.44,,,None,,,,,,,,,,,,,,,,True,True,no_key
130,1011.0,audio-keyboard-response,130,2066701,5,"{""Q0"":""""}",3.44,sound/695,,80.0,generalization,space,positive,False,,1.0,300.0,700.0,p,,True,695.0,-5.0,18.0,,False,False,positive
131,,html-keyboard-response,131,2067706,5,"{""Q0"":""""}",3.44,,,None,,,,,,,,,,,,,,,,True,True,no_key
132,,html-keyboard-response,132,2068212,5,"{""Q0"":""""}",3.44,,,None,,,,,,,,,,,,,,,,True,True,no_key
133,1331.0,audio-keyboard-response,133,2069539,5,"{""Q0"":""""}",3.44,sound/320,,32.0,generalization,space,negative,True,,1.0,300.0,700.0,p,,False,320.0,20.0,19.0,,False,False,neutral
134,,html-keyboard-response,134,2070547,5,"{""Q0"":""""}",3.44,,,None,,,,,,,,,,,,,,,,True,True,no_key
135,,html-keyboard-response,135,2071057,5,"{""Q0"":""""}",3.44,,,None,,,,,,,,,,,,,,,,True,True,no_key
136,1331.0,audio-keyboard-response,136,2072395,5,"{""Q0"":""""}",3.44,sound/300,,32.0,generalization,q,negative,False,,1.0,300.0,700.0,p,,False,,0.0,20.0,,False,False,neutral
137,,html-keyboard-response,137,2073405,5,"{""Q0"":""""}",3.44,,,None,,,,,,,,,,,,,,,,True,True,no_key
138,,html-keyboard-response,138,2073916,5,"{""Q0"":""""}",3.44,,,None,,,,,,,,,,,,,,,,True,True,no_key
139,920.0,audio-keyboard-response,139,2074838,5,"{""Q0"":""""}",3.44,sound/480,,32.0,generalization,space,control,True,,1.0,300.0,700.0,p,,,,,21.0,,False,False,neutral
