rt,stimulus,button_pressed,trial_type,trial_index,time_elapsed,internal_node_id,run_id,condition,recorded_at,source_code_version,ip,user_agent,device,browser,browser_version,platform,platform_version,referer,accept_language,view_history,key_press,trial_info,stage,correct_response,valence,i_block,negative_tone,positive_tone,positive_key,frequency,correct,tone,distance,i_generalization_trial,valence_match,responses
6416,"<p>Before we begin this experiment, please make sure your sound is on and un-muted. When you are ready, press the button below!</p>",0,html-button-response,0,6417,0.0-0.0,3,1,2023-11-23 18:34:09,eecec3b7625347bf626f9f05527b35f8,96.242.234.213,"Mozilla/5.0 (Macintosh; Intel Mac OS X 10_15_7) AppleWebKit/537.36 (KHTML, like Gecko) Chrome/119.0.0.0 Safari/537.36",Macintosh,Chrome,119.0.0.0,OS X,10_15_7,null,"en-US,en;q=0.9",,,,,,,,,,,,,,,,,
23289,,,instructions,1,29708,0.0-1.0,3,1,2023-11-23 18:34:09,eecec3b7625347bf626f9f05527b35f8,96.242.234.213,"Mozilla/5.0 (Macintosh; Intel Mac OS X 10_15_7) AppleWebKit/537.36 (KHTML, like Gecko) Chrome/119.0.0.0 Safari/537.36",Macintosh,Chrome,119.0.0.0,OS X,10_15_7,null,"en-US,en;q=0.9","[{""page_index"":0,""viewing_time"":2767},{""page_index"":1,""viewing_time"":1645},{""page_index"":2,""viewing_time"":8059},{""page_index"":3,""viewing_time"":2819},{""page_index"":4,""viewing_time"":1952},{""page_index"":5,""viewing_time"":4015},{""page_index"":6,""viewing_time"":2031}]",,,,,,,,,,,,,,,,
1356,sound/500,0,audio-button-response,2,32073,0.0-2.0,3,1,2023-11-23 18:34:09,eecec3b7625347bf626f9f05527b35f8,96.242.234.213,"Mozilla/5.0 (Macintosh; Intel Mac OS X 10_15_7) AppleWebKit/537.36 (KHTML, like Gecko) Chrome/119.0.0.0 Safari/537.36",Macintosh,Chrome,119.0.0.0,OS X,10_15_7,null,"en-US,en;q=0.9",,,,,,,,,,,,,,,,,
1356,sound/500,0,audio-button-response,3,33596,0.0-3.0,3,1,2023-11-23 18:34:09,eecec3b7625347bf626f9f05527b35f8,96.242.234.213,"Mozilla/5.0 (Macintosh; Intel Mac OS X 10_15_7) AppleWebKit/537.36 (KHTML, like Gecko) Chrome/119.0.0.0 Safari/537.36",Macintosh,Chrome,119.0.0.0,OS X,10_15_7,null,"en-US,en;q=0.9",,,,,,,,,,,,,,,,,
1356,sound/500,0,audio-button-response,4,34575,0.0-4.0,3,1,2023-11-23 18:34:09,eecec3b7625347bf626f9f05527b35f8,96.242.234.213,"Mozilla/5.0 (Macintosh; Intel Mac OS X 10_15_7) AppleWebKit/537.36 (KHTML, like Gecko) Chrome/119.0.0.0 Safari/537.36",Macintosh,Chrome,119.0.0.0,OS X,10_15_7,null,"en-US,en;q=0.9",,,,,,,,,,,,,,,,,
1356,,,instructions,5,44709,0.0-5.0,3,1,2023-11-23 18:34:09,eecec3b7625347bf626f9f05527b35f8,96.242.234.213,"Mozilla/5.0 (Macintosh; Intel Mac OS X 10_15_7) AppleWebKit/537.36 (KHTML, like Gecko) Chrome/119.0.0.0 Safari/537.36",Macintosh,Chrome,119.0.0.0,OS X,10_15_7,null,"en-US,en;q=0.9","[{""page_index"":0,""viewing_time"":10133}]",,,,,,,,,,,,,,,,
1356,"<div style=""font-size:120%; top:20%""></div>",,html-keyboard-response,6,46117,0.0-6.0-0.0,3,1,2023-11-23 18:34:09,eecec3b7625347bf626f9f05527b35f8,96.242.234.213,"Mozilla/5.0 (Macintosh; Intel Mac OS X 10_15_7) AppleWebKit/537.36 (KHTML, like Gecko) Chrome/119.0.0.0 Safari/537.36",Macintosh,Chrome,119.0.0.0,OS X,10_15_7,null,"en-US,en;q=0.9",,null,[object Object],,,,,,,,,,,,,,
1356,sound/300,,audio-keyboard-response,7,47758,0.0-6.0-1.0,3,1,2023-11-23 18:34:09,eecec3b7625347bf626f9f05527b35f8,96.242.234.213,"Mozilla/5.0 (Macintosh; Intel Mac OS X 10_15_7) AppleWebKit/537.36 (KHTML, like Gecko) Chrome/119.0.0.0 Safari/537.36",Macintosh,Chrome,119.0.0.0,OS X,10_15_7,null,"en-US,en;q=0.9",,80,,acquisition,q,negative,1,300,700,q,300,,,,,,
1356,"<font size=""100%"" weight=bold> - $0.04</font>",,html-keyboard-response,8,48867,0.0-6.0-2.0,3,1,2023-11-23 18:34:09,eecec3b7625347bf626f9f05527b35f8,96.242.234.213,"Mozilla/5.0 (Macintosh; Intel Mac OS X 10_15_7) AppleWebKit/537.36 (KHTML, like Gecko) Chrome/119.0.0.0 Safari/537.36",Macintosh,Chrome,119.0.0.0,OS X,10_15_7,null,"en-US,en;q=0.9",,null,,,,,,,,,,,,,,,
1356,"<div style=""font-size:120%; top:20%""></div>",,html-keyboard-response,9,50380,0.0-6.0-0.1,3,1,2023-11-23 18:34:09,eecec3b7625347bf626f9f05527b35f8,96.242.234.213,"Mozilla/5.0 (Macintosh; Intel Mac OS X 10_15_7) AppleWebKit/537.36 (KHTML, like Gecko) Chrome/119.0.0.0 Safari/537.36",Macintosh,Chrome,119.0.0.0,OS X,10_15_7,null,"en-US,en;q=0.9",,null,[object Object],,,,,,,,,,,,,,
1356,sound/500,,audio-keyboard-response,10,51922,0.0-6.0-1.1,3,1,2023-11-23 18:34:09,eecec3b7625347bf626f9f05527b35f8,96.242.234.213,"Mozilla/5.0 (Macintosh; Intel Mac OS X 10_15_7) AppleWebKit/537.36 (KHTML, like Gecko) Chrome/119.0.0.0 Safari/537.36",Macintosh,Chrome,119.0.0.0,OS X,10_15_7,null,"en-US,en;q=0.9",,80,,acquisition,anything,neutral,1,300,700,q,500,,,,,,
1356,"<font size=""100%""></font>",,html-keyboard-response,11,53028,0.0-6.0-2.1,3,1,2023-11-23 18:34:09,eecec3b7625347bf626f9f05527b35f8,96.242.234.213,"Mozilla/5.0 (Macintosh; Intel Mac OS X 10_15_7) AppleWebKit/537.36 (KHTML, like Gecko) Chrome/119.0.0.0 Safari/537.36",Macintosh,Chrome,119.0.0.0,OS X,10_15_7,null,"en-US,en;q=0.9",,null,,,,,,,,,,,,,,,
1356,"<div style=""font-size:120%; top:20%""></div>",,html-keyboard-response,12,54539,0.0-6.0-0.2,3,1,2023-11-23 18:34:09,eecec3b7625347bf626f9f05527b35f8,96.242.234.213,"Mozilla/5.0 (Macintosh; Intel Mac OS X 10_15_7) AppleWebKit/537.36 (KHTML, like Gecko) Chrome/119.0.0.0 Safari/537.36",Macintosh,Chrome,119.0.0.0,OS X,10_15_7,null,"en-US,en;q=0.9",,null,[object Object],,,,,,,,,,,,,,
1356,sound/300,,audio-keyboard-response,13,56219,0.0-6.0-1.2,3,1,2023-11-23 18:34:09,eecec3b7625347bf626f9f05527b35f8,96.242.234.213,"Mozilla/5.0 (Macintosh; Intel Mac OS X 10_15_7) AppleWebKit/537.36 (KHTML, like Gecko) Chrome/119.0.0.0 Safari/537.36",Macintosh,Chrome,119.0.0.0,OS X,10_15_7,null,"en-US,en;q=0.9",,81,,acquisition,q,negative,1,300,700,q,300,,,,,,
1356,"<font size=""100%"" weight=bold> - $0.04</font>",,html-keyboard-response,14,57327,0.0-6.0-2.2,3,1,2023-11-23 18:34:09,eecec3b7625347bf626f9f05527b35f8,96.242.234.213,"Mozilla/5.0 (Macintosh; Intel Mac OS X 10_15_7) AppleWebKit/537.36 (KHTML, like Gecko) Chrome/119.0.0.0 Safari/537.36",Macintosh,Chrome,119.0.0.0,OS X,10_15_7,null,"en-US,en;q=0.9",,null,,,,,,,,,,,,,,,
1356,"<div style=""font-size:120%; top:20%""></div>",,html-keyboard-response,15,58835,0.0-6.0-0.3,3,1,2023-11-23 18:34:09,eecec3b7625347bf626f9f05527b35f8,96.242.234.213,"Mozilla/5.0 (Macintosh; Intel Mac OS X 10_15_7) AppleWebKit/537.36 (KHTML, like Gecko) Chrome/119.0.0.0 Safari/537.36",Macintosh,Chrome,119.0.0.0,OS X,10_15_7,null,"en-US,en;q=0.9",,null,[object Object],,,,,,,,,,,,,,
1356,sound/500,,audio-keyboard-response,16,61327,0.0-6.0-1.3,3,1,2023-11-23 18:34:09,eecec3b7625347bf626f9f05527b35f8,96.242.234.213,"Mozilla/5.0 (Macintosh; Intel Mac OS X 10_15_7) AppleWebKit/537.36 (KHTML, like Gecko) Chrome/119.0.0.0 Safari/537.36",Macintosh,Chrome,119.0.0.0,OS X,10_15_7,null,"en-US,en;q=0.9",,81,,acquisition,anything,neutral,1,300,700,q,500,,,,,,
1356,"<font size=""100%""></font>",,html-keyboard-response,17,62434,0.0-6.0-2.3,3,1,2023-11-23 18:34:09,eecec3b7625347bf626f9f05527b35f8,96.242.234.213,"Mozilla/5.0 (Macintosh; Intel Mac OS X 10_15_7) AppleWebKit/537.36 (KHTML, like Gecko) Chrome/119.0.0.0 Safari/537.36",Macintosh,Chrome,119.0.0.0,OS X,10_15_7,null,"en-US,en;q=0.9",,null,,,,,,,,,,,,,,,
1356,"<div style=""font-size:120%; top:20%""></div>",,html-keyboard-response,18,63947,0.0-6.0-0.4,3,1,2023-11-23 18:34:09,eecec3b7625347bf626f9f05527b35f8,96.242.234.213,"Mozilla/5.0 (Macintosh; Intel Mac OS X 10_15_7) AppleWebKit/537.36 (KHTML, like Gecko) Chrome/119.0.0.0 Safari/537.36",Macintosh,Chrome,119.0.0.0,OS X,10_15_7,null,"en-US,en;q=0.9",,null,[object Object],,,,,,,,,,,,,,
1356,sound/700,,audio-keyboard-response,19,66318,0.0-6.0-1.4,3,1,2023-11-23 18:34:09,eecec3b7625347bf626f9f05527b35f8,96.242.234.213,"Mozilla/5.0 (Macintosh; Intel Mac OS X 10_15_7) AppleWebKit/537.36 (KHTML, like Gecko) Chrome/119.0.0.0 Safari/537.36",Macintosh,Chrome,119.0.0.0,OS X,10_15_7,null,"en-US,en;q=0.9",,80,,acquisition,p,positive,1,300,700,q,700,,,,,,
1356,"<font size=""100%"" weight=bold> + $0.00 </font>",,html-keyboard-response,20,67430,0.0-6.0-2.4,3,1,2023-11-23 18:34:09,eecec3b7625347bf626f9f05527b35f8,96.242.234.213,"Mozilla/5.0 (Macintosh; Intel Mac OS X 10_15_7) AppleWebKit/537.36 (KHTML, like Gecko) Chrome/119.0.0.0 Safari/537.36",Macintosh,Chrome,119.0.0.0,OS X,10_15_7,null,"en-US,en;q=0.9",,null,,,,,,,,,,,,,,,
1356,"<div style=""font-size:120%; top:20%""></div>",,html-keyboard-response,21,68943,0.0-6.0-0.5,3,1,2023-11-23 18:34:09,eecec3b7625347bf626f9f05527b35f8,96.242.234.213,"Mozilla/5.0 (Macintosh; Intel Mac OS X 10_15_7) AppleWebKit/537.36 (KHTML, like Gecko) Chrome/119.0.0.0 Safari/537.36",Macintosh,Chrome,119.0.0.0,OS X,10_15_7,null,"en-US,en;q=0.9",,null,[object Object],,,,,,,,,,,,,,
1356,sound/700,,audio-keyboard-response,22,71452,0.0-6.0-1.5,3,1,2023-11-23 18:34:09,eecec3b7625347bf626f9f05527b35f8,96.242.234.213,"Mozilla/5.0 (Macintosh; Intel Mac OS X 10_15_7) AppleWebKit/537.36 (KHTML, like Gecko) Chrome/119.0.0.0 Safari/537.36",Macintosh,Chrome,119.0.0.0,OS X,10_15_7,null,"en-US,en;q=0.9",,null,,acquisition,p,positive,1,300,700,q,700,,,,,,
1356,"<font size=""100%"" weight=bold> + $0.00 </font>",,html-keyboard-response,23,72561,0.0-6.0-2.5,3,1,2023-11-23 18:34:09,eecec3b7625347bf626f9f05527b35f8,96.242.234.213,"Mozilla/5.0 (Macintosh; Intel Mac OS X 10_15_7) AppleWebKit/537.36 (KHTML, like Gecko) Chrome/119.0.0.0 Safari/537.36",Macintosh,Chrome,119.0.0.0,OS X,10_15_7,null,"en-US,en;q=0.9",,null,,,,,,,,,,,,,,,
1356,"<div style=""font-size:120%; top:20%""></div>",,html-keyboard-response,24,74072,0.0-6.0-0.6,3,1,2023-11-23 18:34:09,eecec3b7625347bf626f9f05527b35f8,96.242.234.213,"Mozilla/5.0 (Macintosh; Intel Mac OS X 10_15_7) AppleWebKit/537.36 (KHTML, like Gecko) Chrome/119.0.0.0 Safari/537.36",Macintosh,Chrome,119.0.0.0,OS X,10_15_7,null,"en-US,en;q=0.9",,null,[object Object],,,,,,,,,,,,,,
1356,sound/700,,audio-keyboard-response,25,76578,0.0-6.0-1.6,3,1,2023-11-23 18:34:09,eecec3b7625347bf626f9f05527b35f8,96.242.234.213,"Mozilla/5.0 (Macintosh; Intel Mac OS X 10_15_7) AppleWebKit/537.36 (KHTML, like Gecko) Chrome/119.0.0.0 Safari/537.36",Macintosh,Chrome,119.0.0.0,OS X,10_15_7,null,"en-US,en;q=0.9",,null,,acquisition,anything,positive,1,300,700,q,700,TRUE,,,,,
1356,"<font size=""100%"" weight=bold> + $0.04</font>",,html-keyboard-response,26,77688,0.0-6.0-2.6,3,1,2023-11-23 18:34:09,eecec3b7625347bf626f9f05527b35f8,96.242.234.213,"Mozilla/5.0 (Macintosh; Intel Mac OS X 10_15_7) AppleWebKit/537.36 (KHTML, like Gecko) Chrome/119.0.0.0 Safari/537.36",Macintosh,Chrome,119.0.0.0,OS X,10_15_7,null,"en-US,en;q=0.9",,null,,,,,,,,,,,,,,,
1356,"<div style=""font-size:120%; top:20%""></div>",,html-keyboard-response,27,79195,0.0-6.0-0.7,3,1,2023-11-23 18:34:09,eecec3b7625347bf626f9f05527b35f8,96.242.234.213,"Mozilla/5.0 (Macintosh; Intel Mac OS X 10_15_7) AppleWebKit/537.36 (KHTML, like Gecko) Chrome/119.0.0.0 Safari/537.36",Macintosh,Chrome,119.0.0.0,OS X,10_15_7,null,"en-US,en;q=0.9",,null,[object Object],,,,,,,,,,,,,,
1356,sound/300,,audio-keyboard-response,28,80985,0.0-6.0-1.7,3,1,2023-11-23 18:34:09,eecec3b7625347bf626f9f05527b35f8,96.242.234.213,"Mozilla/5.0 (Macintosh; Intel Mac OS X 10_15_7) AppleWebKit/537.36 (KHTML, like Gecko) Chrome/119.0.0.0 Safari/537.36",Macintosh,Chrome,119.0.0.0,OS X,10_15_7,null,"en-US,en;q=0.9",,81,,acquisition,q,negative,1,300,700,q,300,,,,,,
1356,"<font size=""100%"" weight=bold> - $0.04</font>",,html-keyboard-response,29,82096,0.0-6.0-2.7,3,1,2023-11-23 18:34:09,eecec3b7625347bf626f9f05527b35f8,96.242.234.213,"Mozilla/5.0 (Macintosh; Intel Mac OS X 10_15_7) AppleWebKit/537.36 (KHTML, like Gecko) Chrome/119.0.0.0 Safari/537.36",Macintosh,Chrome,119.0.0.0,OS X,10_15_7,null,"en-US,en;q=0.9",,null,,,,,,,,,,,,,,,
1356,"<div style=""font-size:120%; top:20%""></div>",,html-keyboard-response,30,83607,0.0-6.0-0.8,3,1,2023-11-23 18:34:09,eecec3b7625347bf626f9f05527b35f8,96.242.234.213,"Mozilla/5.0 (Macintosh; Intel Mac OS X 10_15_7) AppleWebKit/537.36 (KHTML, like Gecko) Chrome/119.0.0.0 Safari/537.36",Macintosh,Chrome,119.0.0.0,OS X,10_15_7,null,"en-US,en;q=0.9",,null,[object Object],,,,,,,,,,,,,,
1356,sound/700,,audio-keyboard-response,31,84134,0.0-6.0-1.8,3,1,2023-11-23 18:34:09,eecec3b7625347bf626f9f05527b35f8,96.242.234.213,"Mozilla/5.0 (Macintosh; Intel Mac OS X 10_15_7) AppleWebKit/537.36 (KHTML, like Gecko) Chrome/119.0.0.0 Safari/537.36",Macintosh,Chrome,119.0.0.0,OS X,10_15_7,null,"en-US,en;q=0.9",,80,,acquisition,p,positive,1,300,700,q,700,,,,,,
1356,"<font size=""100%"" weight=bold> + $0.00 </font>",,html-keyboard-response,32,85243,0.0-6.0-2.8,3,1,2023-11-23 18:34:09,eecec3b7625347bf626f9f05527b35f8,96.242.234.213,"Mozilla/5.0 (Macintosh; Intel Mac OS X 10_15_7) AppleWebKit/537.36 (KHTML, like Gecko) Chrome/119.0.0.0 Safari/537.36",Macintosh,Chrome,119.0.0.0,OS X,10_15_7,null,"en-US,en;q=0.9",,null,,,,,,,,,,,,,,,
1356,"<div style=""font-size:120%; top:20%""></div>",,html-keyboard-response,33,86754,0.0-6.0-0.9,3,1,2023-11-23 18:34:09,eecec3b7625347bf626f9f05527b35f8,96.242.234.213,"Mozilla/5.0 (Macintosh; Intel Mac OS X 10_15_7) AppleWebKit/537.36 (KHTML, like Gecko) Chrome/119.0.0.0 Safari/537.36",Macintosh,Chrome,119.0.0.0,OS X,10_15_7,null,"en-US,en;q=0.9",,null,[object Object],,,,,,,,,,,,,,
1356,sound/300,,audio-keyboard-response,34,89263,0.0-6.0-1.9,3,1,2023-11-23 18:34:09,eecec3b7625347bf626f9f05527b35f8,96.242.234.213,"Mozilla/5.0 (Macintosh; Intel Mac OS X 10_15_7) AppleWebKit/537.36 (KHTML, like Gecko) Chrome/119.0.0.0 Safari/537.36",Macintosh,Chrome,119.0.0.0,OS X,10_15_7,null,"en-US,en;q=0.9",,null,,acquisition,anything,negative,1,300,700,q,300,FALSE,,,,,
1356,"<font size=""100%"" weight=bold> - $0.04</font>",,html-keyboard-response,35,90380,0.0-6.0-2.9,3,1,2023-11-23 18:34:09,eecec3b7625347bf626f9f05527b35f8,96.242.234.213,"Mozilla/5.0 (Macintosh; Intel Mac OS X 10_15_7) AppleWebKit/537.36 (KHTML, like Gecko) Chrome/119.0.0.0 Safari/537.36",Macintosh,Chrome,119.0.0.0,OS X,10_15_7,null,"en-US,en;q=0.9",,null,,,,,,,,,,,,,,,
1356,"<div style=""font-size:120%; top:20%""></div>",,html-keyboard-response,36,91887,0.0-6.0-0.10,3,1,2023-11-23 18:34:09,eecec3b7625347bf626f9f05527b35f8,96.242.234.213,"Mozilla/5.0 (Macintosh; Intel Mac OS X 10_15_7) AppleWebKit/537.36 (KHTML, like Gecko) Chrome/119.0.0.0 Safari/537.36",Macintosh,Chrome,119.0.0.0,OS X,10_15_7,null,"en-US,en;q=0.9",,null,[object Object],,,,,,,,,,,,,,
1356,sound/500,,audio-keyboard-response,37,92163,0.0-6.0-1.10,3,1,2023-11-23 18:34:09,eecec3b7625347bf626f9f05527b35f8,96.242.234.213,"Mozilla/5.0 (Macintosh; Intel Mac OS X 10_15_7) AppleWebKit/537.36 (KHTML, like Gecko) Chrome/119.0.0.0 Safari/537.36",Macintosh,Chrome,119.0.0.0,OS X,10_15_7,null,"en-US,en;q=0.9",,80,,acquisition,anything,neutral,1,300,700,q,500,,,,,,
1356,"<font size=""100%""></font>",,html-keyboard-response,38,93275,0.0-6.0-2.10,3,1,2023-11-23 18:34:09,eecec3b7625347bf626f9f05527b35f8,96.242.234.213,"Mozilla/5.0 (Macintosh; Intel Mac OS X 10_15_7) AppleWebKit/537.36 (KHTML, like Gecko) Chrome/119.0.0.0 Safari/537.36",Macintosh,Chrome,119.0.0.0,OS X,10_15_7,null,"en-US,en;q=0.9",,null,,,,,,,,,,,,,,,
1356,"<div style=""font-size:120%; top:20%""></div>",,html-keyboard-response,39,94788,0.0-6.0-0.11,3,1,2023-11-23 18:34:09,eecec3b7625347bf626f9f05527b35f8,96.242.234.213,"Mozilla/5.0 (Macintosh; Intel Mac OS X 10_15_7) AppleWebKit/537.36 (KHTML, like Gecko) Chrome/119.0.0.0 Safari/537.36",Macintosh,Chrome,119.0.0.0,OS X,10_15_7,null,"en-US,en;q=0.9",,null,[object Object],,,,,,,,,,,,,,
1356,sound/500,,audio-keyboard-response,40,95187,0.0-6.0-1.11,3,1,2023-11-23 18:34:09,eecec3b7625347bf626f9f05527b35f8,96.242.234.213,"Mozilla/5.0 (Macintosh; Intel Mac OS X 10_15_7) AppleWebKit/537.36 (KHTML, like Gecko) Chrome/119.0.0.0 Safari/537.36",Macintosh,Chrome,119.0.0.0,OS X,10_15_7,null,"en-US,en;q=0.9",,81,,acquisition,anything,neutral,1,300,700,q,500,,,,,,
1356,"<font size=""100%""></font>",,html-keyboard-response,41,96293,0.0-6.0-2.11,3,1,2023-11-23 18:34:09,eecec3b7625347bf626f9f05527b35f8,96.242.234.213,"Mozilla/5.0 (Macintosh; Intel Mac OS X 10_15_7) AppleWebKit/537.36 (KHTML, like Gecko) Chrome/119.0.0.0 Safari/537.36",Macintosh,Chrome,119.0.0.0,OS X,10_15_7,null,"en-US,en;q=0.9",,null,,,,,,,,,,,,,,,
1356,"<div style=""font-size:120%; top:20%""></div>",,html-keyboard-response,42,97804,0.0-6.0-0.12,3,1,2023-11-23 18:34:09,eecec3b7625347bf626f9f05527b35f8,96.242.234.213,"Mozilla/5.0 (Macintosh; Intel Mac OS X 10_15_7) AppleWebKit/537.36 (KHTML, like Gecko) Chrome/119.0.0.0 Safari/537.36",Macintosh,Chrome,119.0.0.0,OS X,10_15_7,null,"en-US,en;q=0.9",,null,[object Object],,,,,,,,,,,,,,
1356,sound/700,,audio-keyboard-response,43,98504,0.0-6.0-1.12,3,1,2023-11-23 18:34:09,eecec3b7625347bf626f9f05527b35f8,96.242.234.213,"Mozilla/5.0 (Macintosh; Intel Mac OS X 10_15_7) AppleWebKit/537.36 (KHTML, like Gecko) Chrome/119.0.0.0 Safari/537.36",Macintosh,Chrome,119.0.0.0,OS X,10_15_7,null,"en-US,en;q=0.9",,81,,acquisition,p,positive,1,300,700,q,700,,,,,,
1356,"<font size=""100%"" weight=bold> + $0.00 </font>",,html-keyboard-response,44,99615,0.0-6.0-2.12,3,1,2023-11-23 18:34:09,eecec3b7625347bf626f9f05527b35f8,96.242.234.213,"Mozilla/5.0 (Macintosh; Intel Mac OS X 10_15_7) AppleWebKit/537.36 (KHTML, like Gecko) Chrome/119.0.0.0 Safari/537.36",Macintosh,Chrome,119.0.0.0,OS X,10_15_7,null,"en-US,en;q=0.9",,null,,,,,,,,,,,,,,,
1356,"<div style=""font-size:120%; top:20%""></div>",,html-keyboard-response,45,101124,0.0-6.0-0.13,3,1,2023-11-23 18:34:09,eecec3b7625347bf626f9f05527b35f8,96.242.234.213,"Mozilla/5.0 (Macintosh; Intel Mac OS X 10_15_7) AppleWebKit/537.36 (KHTML, like Gecko) Chrome/119.0.0.0 Safari/537.36",Macintosh,Chrome,119.0.0.0,OS X,10_15_7,null,"en-US,en;q=0.9",,null,[object Object],,,,,,,,,,,,,,
1356,sound/300,,audio-keyboard-response,46,103633,0.0-6.0-1.13,3,1,2023-11-23 18:34:09,eecec3b7625347bf626f9f05527b35f8,96.242.234.213,"Mozilla/5.0 (Macintosh; Intel Mac OS X 10_15_7) AppleWebKit/537.36 (KHTML, like Gecko) Chrome/119.0.0.0 Safari/537.36",Macintosh,Chrome,119.0.0.0,OS X,10_15_7,null,"en-US,en;q=0.9",,null,,acquisition,q,negative,1,300,700,q,300,,,,,,
1356,"<font size=""100%"" weight=bold> - $0.04</font>",,html-keyboard-response,47,104754,0.0-6.0-2.13,3,1,2023-11-23 18:34:09,eecec3b7625347bf626f9f05527b35f8,96.242.234.213,"Mozilla/5.0 (Macintosh; Intel Mac OS X 10_15_7) AppleWebKit/537.36 (KHTML, like Gecko) Chrome/119.0.0.0 Safari/537.36",Macintosh,Chrome,119.0.0.0,OS X,10_15_7,null,"en-US,en;q=0.9",,null,,,,,,,,,,,,,,,
1356,"<div style=""font-size:120%; top:20%""></div>",,html-keyboard-response,48,106267,0.0-6.0-0.14,3,1,2023-11-23 18:34:09,eecec3b7625347bf626f9f05527b35f8,96.242.234.213,"Mozilla/5.0 (Macintosh; Intel Mac OS X 10_15_7) AppleWebKit/537.36 (KHTML, like Gecko) Chrome/119.0.0.0 Safari/537.36",Macintosh,Chrome,119.0.0.0,OS X,10_15_7,null,"en-US,en;q=0.9",,null,[object Object],,,,,,,,,,,,,,
1356,sound/700,,audio-keyboard-response,49,107234,0.0-6.0-1.14,3,1,2023-11-23 18:34:09,eecec3b7625347bf626f9f05527b35f8,96.242.234.213,"Mozilla/5.0 (Macintosh; Intel Mac OS X 10_15_7) AppleWebKit/537.36 (KHTML, like Gecko) Chrome/119.0.0.0 Safari/537.36",Macintosh,Chrome,119.0.0.0,OS X,10_15_7,null,"en-US,en;q=0.9",,81,,acquisition,p,positive,1,300,700,q,700,,,,,,
1356,"<font size=""100%"" weight=bold> + $0.00 </font>",,html-keyboard-response,50,108344,0.0-6.0-2.14,3,1,2023-11-23 18:34:09,eecec3b7625347bf626f9f05527b35f8,96.242.234.213,"Mozilla/5.0 (Macintosh; Intel Mac OS X 10_15_7) AppleWebKit/537.36 (KHTML, like Gecko) Chrome/119.0.0.0 Safari/537.36",Macintosh,Chrome,119.0.0.0,OS X,10_15_7,null,"en-US,en;q=0.9",,null,,,,,,,,,,,,,,,
1356,"<div style=""font-size:120%; top:20%""></div>",,html-keyboard-response,51,109853,0.0-6.0-0.15,3,1,2023-11-23 18:34:09,eecec3b7625347bf626f9f05527b35f8,96.242.234.213,"Mozilla/5.0 (Macintosh; Intel Mac OS X 10_15_7) AppleWebKit/537.36 (KHTML, like Gecko) Chrome/119.0.0.0 Safari/537.36",Macintosh,Chrome,119.0.0.0,OS X,10_15_7,null,"en-US,en;q=0.9",,null,[object Object],,,,,,,,,,,,,,
1356,sound/300,,audio-keyboard-response,52,111345,0.0-6.0-1.15,3,1,2023-11-23 18:34:09,eecec3b7625347bf626f9f05527b35f8,96.242.234.213,"Mozilla/5.0 (Macintosh; Intel Mac OS X 10_15_7) AppleWebKit/537.36 (KHTML, like Gecko) Chrome/119.0.0.0 Safari/537.36",Macintosh,Chrome,119.0.0.0,OS X,10_15_7,null,"en-US,en;q=0.9",,80,,acquisition,q,negative,1,300,700,q,300,,,,,,
1356,"<font size=""100%"" weight=bold> - $0.04</font>",,html-keyboard-response,53,112451,0.0-6.0-2.15,3,1,2023-11-23 18:34:09,eecec3b7625347bf626f9f05527b35f8,96.242.234.213,"Mozilla/5.0 (Macintosh; Intel Mac OS X 10_15_7) AppleWebKit/537.36 (KHTML, like Gecko) Chrome/119.0.0.0 Safari/537.36",Macintosh,Chrome,119.0.0.0,OS X,10_15_7,null,"en-US,en;q=0.9",,null,,,,,,,,,,,,,,,
1356,"<div style=""font-size:120%; top:20%""></div>",,html-keyboard-response,54,113966,0.0-6.0-0.16,3,1,2023-11-23 18:34:09,eecec3b7625347bf626f9f05527b35f8,96.242.234.213,"Mozilla/5.0 (Macintosh; Intel Mac OS X 10_15_7) AppleWebKit/537.36 (KHTML, like Gecko) Chrome/119.0.0.0 Safari/537.36",Macintosh,Chrome,119.0.0.0,OS X,10_15_7,null,"en-US,en;q=0.9",,null,[object Object],,,,,,,,,,,,,,
1356,sound/700,,audio-keyboard-response,55,116475,0.0-6.0-1.16,3,1,2023-11-23 18:34:09,eecec3b7625347bf626f9f05527b35f8,96.242.234.213,"Mozilla/5.0 (Macintosh; Intel Mac OS X 10_15_7) AppleWebKit/537.36 (KHTML, like Gecko) Chrome/119.0.0.0 Safari/537.36",Macintosh,Chrome,119.0.0.0,OS X,10_15_7,null,"en-US,en;q=0.9",,null,,acquisition,anything,positive,1,300,700,q,700,TRUE,,,,,
1356,"<font size=""100%"" weight=bold> + $0.04</font>",,html-keyboard-response,56,117586,0.0-6.0-2.16,3,1,2023-11-23 18:34:09,eecec3b7625347bf626f9f05527b35f8,96.242.234.213,"Mozilla/5.0 (Macintosh; Intel Mac OS X 10_15_7) AppleWebKit/537.36 (KHTML, like Gecko) Chrome/119.0.0.0 Safari/537.36",Macintosh,Chrome,119.0.0.0,OS X,10_15_7,null,"en-US,en;q=0.9",,null,,,,,,,,,,,,,,,
1356,"<div style=""font-size:120%; top:20%""></div>",,html-keyboard-response,57,119096,0.0-6.0-0.17,3,1,2023-11-23 18:34:09,eecec3b7625347bf626f9f05527b35f8,96.242.234.213,"Mozilla/5.0 (Macintosh; Intel Mac OS X 10_15_7) AppleWebKit/537.36 (KHTML, like Gecko) Chrome/119.0.0.0 Safari/537.36",Macintosh,Chrome,119.0.0.0,OS X,10_15_7,null,"en-US,en;q=0.9",,null,[object Object],,,,,,,,,,,,,,
1356,sound/500,,audio-keyboard-response,58,121603,0.0-6.0-1.17,3,1,2023-11-23 18:34:09,eecec3b7625347bf626f9f05527b35f8,96.242.234.213,"Mozilla/5.0 (Macintosh; Intel Mac OS X 10_15_7) AppleWebKit/537.36 (KHTML, like Gecko) Chrome/119.0.0.0 Safari/537.36",Macintosh,Chrome,119.0.0.0,OS X,10_15_7,null,"en-US,en;q=0.9",,null,,acquisition,anything,neutral,1,300,700,q,500,,,,,,
1356,"<font size=""100%""></font>",,html-keyboard-response,59,122714,0.0-6.0-2.17,3,1,2023-11-23 18:34:09,eecec3b7625347bf626f9f05527b35f8,96.242.234.213,"Mozilla/5.0 (Macintosh; Intel Mac OS X 10_15_7) AppleWebKit/537.36 (KHTML, like Gecko) Chrome/119.0.0.0 Safari/537.36",Macintosh,Chrome,119.0.0.0,OS X,10_15_7,null,"en-US,en;q=0.9",,null,,,,,,,,,,,,,,,
1356,"<div style=""font-size:120%; top:20%""></div>",,html-keyboard-response,60,124226,0.0-6.0-0.18,3,1,2023-11-23 18:34:09,eecec3b7625347bf626f9f05527b35f8,96.242.234.213,"Mozilla/5.0 (Macintosh; Intel Mac OS X 10_15_7) AppleWebKit/537.36 (KHTML, like Gecko) Chrome/119.0.0.0 Safari/537.36",Macintosh,Chrome,119.0.0.0,OS X,10_15_7,null,"en-US,en;q=0.9",,null,[object Object],,,,,,,,,,,,,,
1356,sound/500,,audio-keyboard-response,61,125237,0.0-6.0-1.18,3,1,2023-11-23 18:34:09,eecec3b7625347bf626f9f05527b35f8,96.242.234.213,"Mozilla/5.0 (Macintosh; Intel Mac OS X 10_15_7) AppleWebKit/537.36 (KHTML, like Gecko) Chrome/119.0.0.0 Safari/537.36",Macintosh,Chrome,119.0.0.0,OS X,10_15_7,null,"en-US,en;q=0.9",,81,,acquisition,anything,neutral,1,300,700,q,500,,,,,,
1356,"<font size=""100%""></font>",,html-keyboard-response,62,126345,0.0-6.0-2.18,3,1,2023-11-23 18:34:09,eecec3b7625347bf626f9f05527b35f8,96.242.234.213,"Mozilla/5.0 (Macintosh; Intel Mac OS X 10_15_7) AppleWebKit/537.36 (KHTML, like Gecko) Chrome/119.0.0.0 Safari/537.36",Macintosh,Chrome,119.0.0.0,OS X,10_15_7,null,"en-US,en;q=0.9",,null,,,,,,,,,,,,,,,
1356,"<div style=""font-size:120%; top:20%""></div>",,html-keyboard-response,63,127855,0.0-6.0-0.19,3,1,2023-11-23 18:34:09,eecec3b7625347bf626f9f05527b35f8,96.242.234.213,"Mozilla/5.0 (Macintosh; Intel Mac OS X 10_15_7) AppleWebKit/537.36 (KHTML, like Gecko) Chrome/119.0.0.0 Safari/537.36",Macintosh,Chrome,119.0.0.0,OS X,10_15_7,null,"en-US,en;q=0.9",,null,[object Object],,,,,,,,,,,,,,
1356,sound/300,,audio-keyboard-response,64,130363,0.0-6.0-1.19,3,1,2023-11-23 18:34:09,eecec3b7625347bf626f9f05527b35f8,96.242.234.213,"Mozilla/5.0 (Macintosh; Intel Mac OS X 10_15_7) AppleWebKit/537.36 (KHTML, like Gecko) Chrome/119.0.0.0 Safari/537.36",Macintosh,Chrome,119.0.0.0,OS X,10_15_7,null,"en-US,en;q=0.9",,80,,acquisition,anything,negative,1,300,700,q,300,FALSE,,,,,
1356,"<font size=""100%"" weight=bold> - $0.04</font>",,html-keyboard-response,65,131474,0.0-6.0-2.19,3,1,2023-11-23 18:34:09,eecec3b7625347bf626f9f05527b35f8,96.242.234.213,"Mozilla/5.0 (Macintosh; Intel Mac OS X 10_15_7) AppleWebKit/537.36 (KHTML, like Gecko) Chrome/119.0.0.0 Safari/537.36",Macintosh,Chrome,119.0.0.0,OS X,10_15_7,null,"en-US,en;q=0.9",,null,,,,,,,,,,,,,,,
null,"<div style=""font-size:120%; top:20%""></div>",,html-keyboard-response,66,132986,0.0-6.0-0.20,3,1,2023-11-23 18:34:09,eecec3b7625347bf626f9f05527b35f8,96.242.234.213,"Mozilla/5.0 (Macintosh; Intel Mac OS X 10_15_7) AppleWebKit/537.36 (KHTML, like Gecko) Chrome/119.0.0.0 Safari/537.36",Macintosh,Chrome,119.0.0.0,OS X,10_15_7,null,"en-US,en;q=0.9",,null,[object Object],,,,,,,,,,,,,,
null,sound/300,,audio-keyboard-response,67,135491,0.0-6.0-1.20,3,1,2023-11-23 18:34:09,eecec3b7625347bf626f9f05527b35f8,96.242.234.213,"Mozilla/5.0 (Macintosh; Intel Mac OS X 10_15_7) AppleWebKit/537.36 (KHTML, like Gecko) Chrome/119.0.0.0 Safari/537.36",Macintosh,Chrome,119.0.0.0,OS X,10_15_7,null,"en-US,en;q=0.9",,null,,acquisition,q,negative,1,300,700,q,300,,,,,,
null,"<font size=""100%"" weight=bold> - $0.04</font>",,html-keyboard-response,68,136596,0.0-6.0-2.20,3,1,2023-11-23 18:34:09,eecec3b7625347bf626f9f05527b35f8,96.242.234.213,"Mozilla/5.0 (Macintosh; Intel Mac OS X 10_15_7) AppleWebKit/537.36 (KHTML, like Gecko) Chrome/119.0.0.0 Safari/537.36",Macintosh,Chrome,119.0.0.0,OS X,10_15_7,null,"en-US,en;q=0.9",,null,,,,,,,,,,,,,,,
null,"<div style=""font-size:120%; top:20%""></div>",,html-keyboard-response,69,138108,0.0-6.0-0.21,3,1,2023-11-23 18:34:09,eecec3b7625347bf626f9f05527b35f8,96.242.234.213,"Mozilla/5.0 (Macintosh; Intel Mac OS X 10_15_7) AppleWebKit/537.36 (KHTML, like Gecko) Chrome/119.0.0.0 Safari/537.36",Macintosh,Chrome,119.0.0.0,OS X,10_15_7,null,"en-US,en;q=0.9",,null,[object Object],,,,,,,,,,,,,,
864,sound/700,,audio-keyboard-response,70,138978,0.0-6.0-1.21,3,1,2023-11-23 18:34:09,eecec3b7625347bf626f9f05527b35f8,96.242.234.213,"Mozilla/5.0 (Macintosh; Intel Mac OS X 10_15_7) AppleWebKit/537.36 (KHTML, like Gecko) Chrome/119.0.0.0 Safari/537.36",Macintosh,Chrome,119.0.0.0,OS X,10_15_7,null,"en-US,en;q=0.9",,80,,acquisition,p,positive,1,300,700,q,700,,,,,,
864,"<font size=""100%"" weight=bold> + $0.00 </font>",,html-keyboard-response,71,140090,0.0-6.0-2.21,3,1,2023-11-23 18:34:09,eecec3b7625347bf626f9f05527b35f8,96.242.234.213,"Mozilla/5.0 (Macintosh; Intel Mac OS X 10_15_7) AppleWebKit/537.36 (KHTML, like Gecko) Chrome/119.0.0.0 Safari/537.36",Macintosh,Chrome,119.0.0.0,OS X,10_15_7,null,"en-US,en;q=0.9",,null,,,,,,,,,,,,,,,
864,The total bonus amount of bonus you earned in this last period was $0.00.<br> Press any key to continue to the next step.,,html-keyboard-response,72,144979,0.0-7.0,3,1,2023-11-23 18:34:09,eecec3b7625347bf626f9f05527b35f8,96.242.234.213,"Mozilla/5.0 (Macintosh; Intel Mac OS X 10_15_7) AppleWebKit/537.36 (KHTML, like Gecko) Chrome/119.0.0.0 Safari/537.36",Macintosh,Chrome,119.0.0.0,OS X,10_15_7,null,"en-US,en;q=0.9",,32,,,,,,,,,,,,,,,
864,,,instructions,73,184072,0.0-8.0,3,1,2023-11-23 18:34:09,eecec3b7625347bf626f9f05527b35f8,96.242.234.213,"Mozilla/5.0 (Macintosh; Intel Mac OS X 10_15_7) AppleWebKit/537.36 (KHTML, like Gecko) Chrome/119.0.0.0 Safari/537.36",Macintosh,Chrome,119.0.0.0,OS X,10_15_7,null,"en-US,en;q=0.9","[{""page_index"":0,""viewing_time"":2173},{""page_index"":1,""viewing_time"":3765},{""page_index"":2,""viewing_time"":13995},{""page_index"":3,""viewing_time"":13431},{""page_index"":4,""viewing_time"":5728}]",,,,,,,,,,,,,,,,
864,,,html-keyboard-response,74,184990,0.0-9.0-0.0,3,1,2023-11-23 18:34:09,eecec3b7625347bf626f9f05527b35f8,96.242.234.213,"Mozilla/5.0 (Macintosh; Intel Mac OS X 10_15_7) AppleWebKit/537.36 (KHTML, like Gecko) Chrome/119.0.0.0 Safari/537.36",Macintosh,Chrome,119.0.0.0,OS X,10_15_7,null,"en-US,en;q=0.9",,null,[object Object],,,,,,,,,,,,,,
864,sound/680,,audio-keyboard-response,75,186016,0.0-9.0-1.0,3,1,2023-11-23 18:34:09,eecec3b7625347bf626f9f05527b35f8,96.242.234.213,"Mozilla/5.0 (Macintosh; Intel Mac OS X 10_15_7) AppleWebKit/537.36 (KHTML, like Gecko) Chrome/119.0.0.0 Safari/537.36",Macintosh,Chrome,119.0.0.0,OS X,10_15_7,null,"en-US,en;q=0.9",,80,,generalization,space,positive,1,300,700,q,,FALSE,680,-20,0,TRUE,
864,,,html-keyboard-response,76,187025,0.0-9.0-2.0,3,1,2023-11-23 18:34:09,eecec3b7625347bf626f9f05527b35f8,96.242.234.213,"Mozilla/5.0 (Macintosh; Intel Mac OS X 10_15_7) AppleWebKit/537.36 (KHTML, like Gecko) Chrome/119.0.0.0 Safari/537.36",Macintosh,Chrome,119.0.0.0,OS X,10_15_7,null,"en-US,en;q=0.9",,null,,,,,,,,,,,,,,,
864,,,html-keyboard-response,77,187537,0.0-9.0-0.1,3,1,2023-11-23 18:34:09,eecec3b7625347bf626f9f05527b35f8,96.242.234.213,"Mozilla/5.0 (Macintosh; Intel Mac OS X 10_15_7) AppleWebKit/537.36 (KHTML, like Gecko) Chrome/119.0.0.0 Safari/537.36",Macintosh,Chrome,119.0.0.0,OS X,10_15_7,null,"en-US,en;q=0.9",,null,[object Object],,,,,,,,,,,,,,
864,sound/480,,audio-keyboard-response,78,188146,0.0-9.0-1.1,3,1,2023-11-23 18:34:09,eecec3b7625347bf626f9f05527b35f8,96.242.234.213,"Mozilla/5.0 (Macintosh; Intel Mac OS X 10_15_7) AppleWebKit/537.36 (KHTML, like Gecko) Chrome/119.0.0.0 Safari/537.36",Macintosh,Chrome,119.0.0.0,OS X,10_15_7,null,"en-US,en;q=0.9",,81,,generalization,space,control,1,300,700,q,,FALSE,,NaN,1,,
864,,,html-keyboard-response,79,189152,0.0-9.0-2.1,3,1,2023-11-23 18:34:09,eecec3b7625347bf626f9f05527b35f8,96.242.234.213,"Mozilla/5.0 (Macintosh; Intel Mac OS X 10_15_7) AppleWebKit/537.36 (KHTML, like Gecko) Chrome/119.0.0.0 Safari/537.36",Macintosh,Chrome,119.0.0.0,OS X,10_15_7,null,"en-US,en;q=0.9",,null,,,,,,,,,,,,,,,
864,,,html-keyboard-response,80,189662,0.0-9.0-0.2,3,1,2023-11-23 18:34:09,eecec3b7625347bf626f9f05527b35f8,96.242.234.213,"Mozilla/5.0 (Macintosh; Intel Mac OS X 10_15_7) AppleWebKit/537.36 (KHTML, like Gecko) Chrome/119.0.0.0 Safari/537.36",Macintosh,Chrome,119.0.0.0,OS X,10_15_7,null,"en-US,en;q=0.9",,null,[object Object],,,,,,,,,,,,,,
864,sound/300,,audio-keyboard-response,81,191200,0.0-9.0-1.2,3,1,2023-11-23 18:34:09,eecec3b7625347bf626f9f05527b35f8,96.242.234.213,"Mozilla/5.0 (Macintosh; Intel Mac OS X 10_15_7) AppleWebKit/537.36 (KHTML, like Gecko) Chrome/119.0.0.0 Safari/537.36",Macintosh,Chrome,119.0.0.0,OS X,10_15_7,null,"en-US,en;q=0.9",,32,,generalization,q,negative,1,300,700,q,,FALSE,,0,2,FALSE,
864,,,html-keyboard-response,82,192208,0.0-9.0-2.2,3,1,2023-11-23 18:34:09,eecec3b7625347bf626f9f05527b35f8,96.242.234.213,"Mozilla/5.0 (Macintosh; Intel Mac OS X 10_15_7) AppleWebKit/537.36 (KHTML, like Gecko) Chrome/119.0.0.0 Safari/537.36",Macintosh,Chrome,119.0.0.0,OS X,10_15_7,null,"en-US,en;q=0.9",,null,,,,,,,,,,,,,,,
864,,,html-keyboard-response,83,192718,0.0-9.0-0.3,3,1,2023-11-23 18:34:09,eecec3b7625347bf626f9f05527b35f8,96.242.234.213,"Mozilla/5.0 (Macintosh; Intel Mac OS X 10_15_7) AppleWebKit/537.36 (KHTML, like Gecko) Chrome/119.0.0.0 Safari/537.36",Macintosh,Chrome,119.0.0.0,OS X,10_15_7,null,"en-US,en;q=0.9",,null,[object Object],,,,,,,,,,,,,,
864,sound/500,,audio-keyboard-response,84,193404,0.0-9.0-1.3,3,1,2023-11-23 18:34:09,eecec3b7625347bf626f9f05527b35f8,96.242.234.213,"Mozilla/5.0 (Macintosh; Intel Mac OS X 10_15_7) AppleWebKit/537.36 (KHTML, like Gecko) Chrome/119.0.0.0 Safari/537.36",Macintosh,Chrome,119.0.0.0,OS X,10_15_7,null,"en-US,en;q=0.9",,80,,generalization,space,control,1,300,700,q,,FALSE,,NaN,3,,
null,,,html-keyboard-response,85,194409,0.0-9.0-2.3,3,1,2023-11-23 18:34:09,eecec3b7625347bf626f9f05527b35f8,96.242.234.213,"Mozilla/5.0 (Macintosh; Intel Mac OS X 10_15_7) AppleWebKit/537.36 (KHTML, like Gecko) Chrome/119.0.0.0 Safari/537.36",Macintosh,Chrome,119.0.0.0,OS X,10_15_7,null,"en-US,en;q=0.9",,null,,,,,,,,,,,,,,,
null,,,html-keyboard-response,86,194918,0.0-9.0-0.4,3,1,2023-11-23 18:34:09,eecec3b7625347bf626f9f05527b35f8,96.242.234.213,"Mozilla/5.0 (Macintosh; Intel Mac OS X 10_15_7) AppleWebKit/537.36 (KHTML, like Gecko) Chrome/119.0.0.0 Safari/537.36",Macintosh,Chrome,119.0.0.0,OS X,10_15_7,null,"en-US,en;q=0.9",,null,[object Object],,,,,,,,,,,,,,
725,sound/800,,audio-keyboard-response,87,195647,0.0-9.0-1.4,3,1,2023-11-23 18:34:09,eecec3b7625347bf626f9f05527b35f8,96.242.234.213,"Mozilla/5.0 (Macintosh; Intel Mac OS X 10_15_7) AppleWebKit/537.36 (KHTML, like Gecko) Chrome/119.0.0.0 Safari/537.36",Macintosh,Chrome,119.0.0.0,OS X,10_15_7,null,"en-US,en;q=0.9",,81,,generalization,space,positive,1,300,700,q,,FALSE,800,100,4,FALSE,
null,,,html-keyboard-response,88,196651,0.0-9.0-2.4,3,1,2023-11-23 18:34:09,eecec3b7625347bf626f9f05527b35f8,96.242.234.213,"Mozilla/5.0 (Macintosh; Intel Mac OS X 10_15_7) AppleWebKit/537.36 (KHTML, like Gecko) Chrome/119.0.0.0 Safari/537.36",Macintosh,Chrome,119.0.0.0,OS X,10_15_7,null,"en-US,en;q=0.9",,null,,,,,,,,,,,,,,,
null,,,html-keyboard-response,89,197161,0.0-9.0-0.5,3,1,2023-11-23 18:34:09,eecec3b7625347bf626f9f05527b35f8,96.242.234.213,"Mozilla/5.0 (Macintosh; Intel Mac OS X 10_15_7) AppleWebKit/537.36 (KHTML, like Gecko) Chrome/119.0.0.0 Safari/537.36",Macintosh,Chrome,119.0.0.0,OS X,10_15_7,null,"en-US,en;q=0.9",,null,[object Object],,,,,,,,,,,,,,
651,sound/300,,audio-keyboard-response,90,197810,0.0-9.0-1.5,3,1,2023-11-23 18:34:09,eecec3b7625347bf626f9f05527b35f8,96.242.234.213,"Mozilla/5.0 (Macintosh; Intel Mac OS X 10_15_7) AppleWebKit/537.36 (KHTML, like Gecko) Chrome/119.0.0.0 Safari/537.36",Macintosh,Chrome,119.0.0.0,OS X,10_15_7,null,"en-US,en;q=0.9",,80,,generalization,q,negative,1,300,700,q,,FALSE,,0,5,FALSE,
651,,,html-keyboard-response,91,198818,0.0-9.0-2.5,3,1,2023-11-23 18:34:09,eecec3b7625347bf626f9f05527b35f8,96.242.234.213,"Mozilla/5.0 (Macintosh; Intel Mac OS X 10_15_7) AppleWebKit/537.36 (KHTML, like Gecko) Chrome/119.0.0.0 Safari/537.36",Macintosh,Chrome,119.0.0.0,OS X,10_15_7,null,"en-US,en;q=0.9",,null,,,,,,,,,,,,,,,
651,,,html-keyboard-response,92,199329,0.0-9.0-0.6,3,1,2023-11-23 18:34:09,eecec3b7625347bf626f9f05527b35f8,96.242.234.213,"Mozilla/5.0 (Macintosh; Intel Mac OS X 10_15_7) AppleWebKit/537.36 (KHTML, like Gecko) Chrome/119.0.0.0 Safari/537.36",Macintosh,Chrome,119.0.0.0,OS X,10_15_7,null,"en-US,en;q=0.9",,null,[object Object],,,,,,,,,,,,,,
651,sound/880,,audio-keyboard-response,93,199813,0.0-9.0-1.6,3,1,2023-11-23 18:34:09,eecec3b7625347bf626f9f05527b35f8,96.242.234.213,"Mozilla/5.0 (Macintosh; Intel Mac OS X 10_15_7) AppleWebKit/537.36 (KHTML, like Gecko) Chrome/119.0.0.0 Safari/537.36",Macintosh,Chrome,119.0.0.0,OS X,10_15_7,null,"en-US,en;q=0.9",,80,,generalization,space,control,1,300,700,q,,FALSE,,NaN,6,,
651,,,html-keyboard-response,94,200821,0.0-9.0-2.6,3,1,2023-11-23 18:34:09,eecec3b7625347bf626f9f05527b35f8,96.242.234.213,"Mozilla/5.0 (Macintosh; Intel Mac OS X 10_15_7) AppleWebKit/537.36 (KHTML, like Gecko) Chrome/119.0.0.0 Safari/537.36",Macintosh,Chrome,119.0.0.0,OS X,10_15_7,null,"en-US,en;q=0.9",,null,,,,,,,,,,,,,,,
651,,,html-keyboard-response,95,201337,0.0-9.0-0.7,3,1,2023-11-23 18:34:09,eecec3b7625347bf626f9f05527b35f8,96.242.234.213,"Mozilla/5.0 (Macintosh; Intel Mac OS X 10_15_7) AppleWebKit/537.36 (KHTML, like Gecko) Chrome/119.0.0.0 Safari/537.36",Macintosh,Chrome,119.0.0.0,OS X,10_15_7,null,"en-US,en;q=0.9",,null,[object Object],,,,,,,,,,,,,,
651,sound/360,,audio-keyboard-response,96,201640,0.0-9.0-1.7,3,1,2023-11-23 18:34:09,eecec3b7625347bf626f9f05527b35f8,96.242.234.213,"Mozilla/5.0 (Macintosh; Intel Mac OS X 10_15_7) AppleWebKit/537.36 (KHTML, like Gecko) Chrome/119.0.0.0 Safari/537.36",Macintosh,Chrome,119.0.0.0,OS X,10_15_7,null,"en-US,en;q=0.9",,81,,generalization,space,negative,1,300,700,q,,FALSE,360,60,7,TRUE,
651,,,html-keyboard-response,97,202647,0.0-9.0-2.7,3,1,2023-11-23 18:34:09,eecec3b7625347bf626f9f05527b35f8,96.242.234.213,"Mozilla/5.0 (Macintosh; Intel Mac OS X 10_15_7) AppleWebKit/537.36 (KHTML, like Gecko) Chrome/119.0.0.0 Safari/537.36",Macintosh,Chrome,119.0.0.0,OS X,10_15_7,null,"en-US,en;q=0.9",,null,,,,,,,,,,,,,,,
651,,,html-keyboard-response,98,203154,0.0-9.0-0.8,3,1,2023-11-23 18:34:09,eecec3b7625347bf626f9f05527b35f8,96.242.234.213,"Mozilla/5.0 (Macintosh; Intel Mac OS X 10_15_7) AppleWebKit/537.36 (KHTML, like Gecko) Chrome/119.0.0.0 Safari/537.36",Macintosh,Chrome,119.0.0.0,OS X,10_15_7,null,"en-US,en;q=0.9",,null,[object Object],,,,,,,,,,,,,,
651,sound/695,,audio-keyboard-response,99,203737,0.0-9.0-1.8,3,1,2023-11-23 18:34:09,eecec3b7625347bf626f9f05527b35f8,96.242.234.213,"Mozilla/5.0 (Macintosh; Intel Mac OS X 10_15_7) AppleWebKit/537.36 (KHTML, like Gecko) Chrome/119.0.0.0 Safari/537.36",Macintosh,Chrome,119.0.0.0,OS X,10_15_7,null,"en-US,en;q=0.9",,32,,generalization,space,positive,1,300,700,q,,TRUE,695,-5,8,FALSE,
651,,,html-keyboard-response,100,204744,0.0-9.0-2.8,3,1,2023-11-23 18:34:09,eecec3b7625347bf626f9f05527b35f8,96.242.234.213,"Mozilla/5.0 (Macintosh; Intel Mac OS X 10_15_7) AppleWebKit/537.36 (KHTML, like Gecko) Chrome/119.0.0.0 Safari/537.36",Macintosh,Chrome,119.0.0.0,OS X,10_15_7,null,"en-US,en;q=0.9",,null,,,,,,,,,,,,,,,
651,,,html-keyboard-response,101,205251,0.0-9.0-0.9,3,1,2023-11-23 18:34:09,eecec3b7625347bf626f9f05527b35f8,96.242.234.213,"Mozilla/5.0 (Macintosh; Intel Mac OS X 10_15_7) AppleWebKit/537.36 (KHTML, like Gecko) Chrome/119.0.0.0 Safari/537.36",Macintosh,Chrome,119.0.0.0,OS X,10_15_7,null,"en-US,en;q=0.9",,null,[object Object],,,,,,,,,,,,,,
651,sound/640,,audio-keyboard-response,102,205522,0.0-9.0-1.9,3,1,2023-11-23 18:34:09,eecec3b7625347bf626f9f05527b35f8,96.242.234.213,"Mozilla/5.0 (Macintosh; Intel Mac OS X 10_15_7) AppleWebKit/537.36 (KHTML, like Gecko) Chrome/119.0.0.0 Safari/537.36",Macintosh,Chrome,119.0.0.0,OS X,10_15_7,null,"en-US,en;q=0.9",,32,,generalization,space,positive,1,300,700,q,,TRUE,640,-60,9,FALSE,
651,,,html-keyboard-response,103,206529,0.0-9.0-2.9,3,1,2023-11-23 18:34:09,eecec3b7625347bf626f9f05527b35f8,96.242.234.213,"Mozilla/5.0 (Macintosh; Intel Mac OS X 10_15_7) AppleWebKit/537.36 (KHTML, like Gecko) Chrome/119.0.0.0 Safari/537.36",Macintosh,Chrome,119.0.0.0,OS X,10_15_7,null,"en-US,en;q=0.9",,null,,,,,,,,,,,,,,,
651,,,html-keyboard-response,104,207036,0.0-9.0-0.10,3,1,2023-11-23 18:34:09,eecec3b7625347bf626f9f05527b35f8,96.242.234.213,"Mozilla/5.0 (Macintosh; Intel Mac OS X 10_15_7) AppleWebKit/537.36 (KHTML, like Gecko) Chrome/119.0.0.0 Safari/537.36",Macintosh,Chrome,119.0.0.0,OS X,10_15_7,null,"en-US,en;q=0.9",,null,[object Object],,,,,,,,,,,,,,
651,sound/760,,audio-keyboard-response,105,207540,0.0-9.0-1.10,3,1,2023-11-23 18:34:09,eecec3b7625347bf626f9f05527b35f8,96.242.234.213,"Mozilla/5.0 (Macintosh; Intel Mac OS X 10_15_7) AppleWebKit/537.36 (KHTML, like Gecko) Chrome/119.0.0.0 Safari/537.36",Macintosh,Chrome,119.0.0.0,OS X,10_15_7,null,"en-US,en;q=0.9",,32,,generalization,space,positive,1,300,700,q,,TRUE,760,60,10,FALSE,
651,,,html-keyboard-response,106,208546,0.0-9.0-2.10,3,1,2023-11-23 18:34:09,eecec3b7625347bf626f9f05527b35f8,96.242.234.213,"Mozilla/5.0 (Macintosh; Intel Mac OS X 10_15_7) AppleWebKit/537.36 (KHTML, like Gecko) Chrome/119.0.0.0 Safari/537.36",Macintosh,Chrome,119.0.0.0,OS X,10_15_7,null,"en-US,en;q=0.9",,null,,,,,,,,,,,,,,,
651,,,html-keyboard-response,107,209054,0.0-9.0-0.11,3,1,2023-11-23 18:34:09,eecec3b7625347bf626f9f05527b35f8,96.242.234.213,"Mozilla/5.0 (Macintosh; Intel Mac OS X 10_15_7) AppleWebKit/537.36 (KHTML, like Gecko) Chrome/119.0.0.0 Safari/537.36",Macintosh,Chrome,119.0.0.0,OS X,10_15_7,null,"en-US,en;q=0.9",,null,[object Object],,,,,,,,,,,,,,
651,sound/700,,audio-keyboard-response,108,209321,0.0-9.0-1.11,3,1,2023-11-23 18:34:09,eecec3b7625347bf626f9f05527b35f8,96.242.234.213,"Mozilla/5.0 (Macintosh; Intel Mac OS X 10_15_7) AppleWebKit/537.36 (KHTML, like Gecko) Chrome/119.0.0.0 Safari/537.36",Macintosh,Chrome,119.0.0.0,OS X,10_15_7,null,"en-US,en;q=0.9",,32,,generalization,p,positive,1,300,700,q,,FALSE,,0,11,FALSE,
651,,,html-keyboard-response,109,210328,0.0-9.0-2.11,3,1,2023-11-23 18:34:09,eecec3b7625347bf626f9f05527b35f8,96.242.234.213,"Mozilla/5.0 (Macintosh; Intel Mac OS X 10_15_7) AppleWebKit/537.36 (KHTML, like Gecko) Chrome/119.0.0.0 Safari/537.36",Macintosh,Chrome,119.0.0.0,OS X,10_15_7,null,"en-US,en;q=0.9",,null,,,,,,,,,,,,,,,
651,,,html-keyboard-response,110,210838,0.0-9.0-0.12,3,1,2023-11-23 18:34:09,eecec3b7625347bf626f9f05527b35f8,96.242.234.213,"Mozilla/5.0 (Macintosh; Intel Mac OS X 10_15_7) AppleWebKit/537.36 (KHTML, like Gecko) Chrome/119.0.0.0 Safari/537.36",Macintosh,Chrome,119.0.0.0,OS X,10_15_7,null,"en-US,en;q=0.9",,null,[object Object],,,,,,,,,,,,,,
651,sound/240,,audio-keyboard-response,111,211359,0.0-9.0-1.12,3,1,2023-11-23 18:34:09,eecec3b7625347bf626f9f05527b35f8,96.242.234.213,"Mozilla/5.0 (Macintosh; Intel Mac OS X 10_15_7) AppleWebKit/537.36 (KHTML, like Gecko) Chrome/119.0.0.0 Safari/537.36",Macintosh,Chrome,119.0.0.0,OS X,10_15_7,null,"en-US,en;q=0.9",,32,,generalization,space,negative,1,300,700,q,,TRUE,240,-60,12,FALSE,
651,,,html-keyboard-response,112,212366,0.0-9.0-2.12,3,1,2023-11-23 18:34:09,eecec3b7625347bf626f9f05527b35f8,96.242.234.213,"Mozilla/5.0 (Macintosh; Intel Mac OS X 10_15_7) AppleWebKit/537.36 (KHTML, like Gecko) Chrome/119.0.0.0 Safari/537.36",Macintosh,Chrome,119.0.0.0,OS X,10_15_7,null,"en-US,en;q=0.9",,null,,,,,,,,,,,,,,,
651,,,html-keyboard-response,113,212873,0.0-9.0-0.13,3,1,2023-11-23 18:34:09,eecec3b7625347bf626f9f05527b35f8,96.242.234.213,"Mozilla/5.0 (Macintosh; Intel Mac OS X 10_15_7) AppleWebKit/537.36 (KHTML, like Gecko) Chrome/119.0.0.0 Safari/537.36",Macintosh,Chrome,119.0.0.0,OS X,10_15_7,null,"en-US,en;q=0.9",,null,[object Object],,,,,,,,,,,,,,
651,sound/700,,audio-keyboard-response,114,213313,0.0-9.0-1.13,3,1,2023-11-23 18:34:09,eecec3b7625347bf626f9f05527b35f8,96.242.234.213,"Mozilla/5.0 (Macintosh; Intel Mac OS X 10_15_7) AppleWebKit/537.36 (KHTML, like Gecko) Chrome/119.0.0.0 Safari/537.36",Macintosh,Chrome,119.0.0.0,OS X,10_15_7,null,"en-US,en;q=0.9",,80,,generalization,p,positive,1,300,700,q,,TRUE,,0,13,TRUE,
651,,,html-keyboard-response,115,214321,0.0-9.0-2.13,3,1,2023-11-23 18:34:09,eecec3b7625347bf626f9f05527b35f8,96.242.234.213,"Mozilla/5.0 (Macintosh; Intel Mac OS X 10_15_7) AppleWebKit/537.36 (KHTML, like Gecko) Chrome/119.0.0.0 Safari/537.36",Macintosh,Chrome,119.0.0.0,OS X,10_15_7,null,"en-US,en;q=0.9",,null,,,,,,,,,,,,,,,
651,,,html-keyboard-response,116,214832,0.0-9.0-0.14,3,1,2023-11-23 18:34:09,eecec3b7625347bf626f9f05527b35f8,96.242.234.213,"Mozilla/5.0 (Macintosh; Intel Mac OS X 10_15_7) AppleWebKit/537.36 (KHTML, like Gecko) Chrome/119.0.0.0 Safari/537.36",Macintosh,Chrome,119.0.0.0,OS X,10_15_7,null,"en-US,en;q=0.9",,null,[object Object],,,,,,,,,,,,,,
651,sound/280,,audio-keyboard-response,117,215339,0.0-9.0-1.14,3,1,2023-11-23 18:34:09,eecec3b7625347bf626f9f05527b35f8,96.242.234.213,"Mozilla/5.0 (Macintosh; Intel Mac OS X 10_15_7) AppleWebKit/537.36 (KHTML, like Gecko) Chrome/119.0.0.0 Safari/537.36",Macintosh,Chrome,119.0.0.0,OS X,10_15_7,null,"en-US,en;q=0.9",,81,,generalization,space,negative,1,300,700,q,,FALSE,280,-20,14,TRUE,
651,,,html-keyboard-response,118,216344,0.0-9.0-2.14,3,1,2023-11-23 18:34:09,eecec3b7625347bf626f9f05527b35f8,96.242.234.213,"Mozilla/5.0 (Macintosh; Intel Mac OS X 10_15_7) AppleWebKit/537.36 (KHTML, like Gecko) Chrome/119.0.0.0 Safari/537.36",Macintosh,Chrome,119.0.0.0,OS X,10_15_7,null,"en-US,en;q=0.9",,null,,,,,,,,,,,,,,,
651,,,html-keyboard-response,119,216854,0.0-9.0-0.15,3,1,2023-11-23 18:34:09,eecec3b7625347bf626f9f05527b35f8,96.242.234.213,"Mozilla/5.0 (Macintosh; Intel Mac OS X 10_15_7) AppleWebKit/537.36 (KHTML, like Gecko) Chrome/119.0.0.0 Safari/537.36",Macintosh,Chrome,119.0.0.0,OS X,10_15_7,null,"en-US,en;q=0.9",,null,[object Object],,,,,,,,,,,,,,
651,sound/700,,audio-keyboard-response,120,217389,0.0-9.0-1.15,3,1,2023-11-23 18:34:09,eecec3b7625347bf626f9f05527b35f8,96.242.234.213,"Mozilla/5.0 (Macintosh; Intel Mac OS X 10_15_7) AppleWebKit/537.36 (KHTML, like Gecko) Chrome/119.0.0.0 Safari/537.36",Macintosh,Chrome,119.0.0.0,OS X,10_15_7,null,"en-US,en;q=0.9",,80,,generalization,p,positive,1,300,700,q,,TRUE,,0,15,TRUE,
651,,,html-keyboard-response,121,218396,0.0-9.0-2.15,3,1,2023-11-23 18:34:09,eecec3b7625347bf626f9f05527b35f8,96.242.234.213,"Mozilla/5.0 (Macintosh; Intel Mac OS X 10_15_7) AppleWebKit/537.36 (KHTML, like Gecko) Chrome/119.0.0.0 Safari/537.36",Macintosh,Chrome,119.0.0.0,OS X,10_15_7,null,"en-US,en;q=0.9",,null,,,,,,,,,,,,,,,
651,,,html-keyboard-response,122,218900,0.0-9.0-0.16,3,1,2023-11-23 18:34:09,eecec3b7625347bf626f9f05527b35f8,96.242.234.213,"Mozilla/5.0 (Macintosh; Intel Mac OS X 10_15_7) AppleWebKit/537.36 (KHTML, like Gecko) Chrome/119.0.0.0 Safari/537.36",Macintosh,Chrome,119.0.0.0,OS X,10_15_7,null,"en-US,en;q=0.9",,null,[object Object],,,,,,,,,,,,,,
651,sound/705,,audio-keyboard-response,123,219421,0.0-9.0-1.16,3,1,2023-11-23 18:34:09,eecec3b7625347bf626f9f05527b35f8,96.242.234.213,"Mozilla/5.0 (Macintosh; Intel Mac OS X 10_15_7) AppleWebKit/537.36 (KHTML, like Gecko) Chrome/119.0.0.0 Safari/537.36",Macintosh,Chrome,119.0.0.0,OS X,10_15_7,null,"en-US,en;q=0.9",,80,,generalization,space,positive,1,300,700,q,,FALSE,705,5,16,TRUE,
651,,,html-keyboard-response,124,220428,0.0-9.0-2.16,3,1,2023-11-23 18:34:09,eecec3b7625347bf626f9f05527b35f8,96.242.234.213,"Mozilla/5.0 (Macintosh; Intel Mac OS X 10_15_7) AppleWebKit/537.36 (KHTML, like Gecko) Chrome/119.0.0.0 Safari/537.36",Macintosh,Chrome,119.0.0.0,OS X,10_15_7,null,"en-US,en;q=0.9",,null,,,,,,,,,,,,,,,
651,,,html-keyboard-response,125,220936,0.0-9.0-0.17,3,1,2023-11-23 18:34:09,eecec3b7625347bf626f9f05527b35f8,96.242.234.213,"Mozilla/5.0 (Macintosh; Intel Mac OS X 10_15_7) AppleWebKit/537.36 (KHTML, like Gecko) Chrome/119.0.0.0 Safari/537.36",Macintosh,Chrome,119.0.0.0,OS X,10_15_7,null,"en-US,en;q=0.9",,null,[object Object],,,,,,,,,,,,,,
651,sound/520,,audio-keyboard-response,126,221422,0.0-9.0-1.17,3,1,2023-11-23 18:34:09,eecec3b7625347bf626f9f05527b35f8,96.242.234.213,"Mozilla/5.0 (Macintosh; Intel Mac OS X 10_15_7) AppleWebKit/537.36 (KHTML, like Gecko) Chrome/119.0.0.0 Safari/537.36",Macintosh,Chrome,119.0.0.0,OS X,10_15_7,null,"en-US,en;q=0.9",,81,,generalization,space,control,1,300,700,q,,FALSE,,NaN,17,,
651,,,html-keyboard-response,127,222428,0.0-9.0-2.17,3,1,2023-11-23 18:34:09,eecec3b7625347bf626f9f05527b35f8,96.242.234.213,"Mozilla/5.0 (Macintosh; Intel Mac OS X 10_15_7) AppleWebKit/537.36 (KHTML, like Gecko) Chrome/119.0.0.0 Safari/537.36",Macintosh,Chrome,119.0.0.0,OS X,10_15_7,null,"en-US,en;q=0.9",,null,,,,,,,,,,,,,,,
651,,,html-keyboard-response,128,222935,0.0-9.0-0.18,3,1,2023-11-23 18:34:09,eecec3b7625347bf626f9f05527b35f8,96.242.234.213,"Mozilla/5.0 (Macintosh; Intel Mac OS X 10_15_7) AppleWebKit/537.36 (KHTML, like Gecko) Chrome/119.0.0.0 Safari/537.36",Macintosh,Chrome,119.0.0.0,OS X,10_15_7,null,"en-US,en;q=0.9",,null,[object Object],,,,,,,,,,,,,,
651,sound/320,,audio-keyboard-response,129,223614,0.0-9.0-1.18,3,1,2023-11-23 18:34:09,eecec3b7625347bf626f9f05527b35f8,96.242.234.213,"Mozilla/5.0 (Macintosh; Intel Mac OS X 10_15_7) AppleWebKit/537.36 (KHTML, like Gecko) Chrome/119.0.0.0 Safari/537.36",Macintosh,Chrome,119.0.0.0,OS X,10_15_7,null,"en-US,en;q=0.9",,81,,generalization,space,negative,1,300,700,q,,FALSE,320,20,18,TRUE,
651,,,html-keyboard-response,130,224621,0.0-9.0-2.18,3,1,2023-11-23 18:34:09,eecec3b7625347bf626f9f05527b35f8,96.242.234.213,"Mozilla/5.0 (Macintosh; Intel Mac OS X 10_15_7) AppleWebKit/537.36 (KHTML, like Gecko) Chrome/119.0.0.0 Safari/537.36",Macintosh,Chrome,119.0.0.0,OS X,10_15_7,null,"en-US,en;q=0.9",,null,,,,,,,,,,,,,,,
651,,,html-keyboard-response,131,225127,0.0-9.0-0.19,3,1,2023-11-23 18:34:09,eecec3b7625347bf626f9f05527b35f8,96.242.234.213,"Mozilla/5.0 (Macintosh; Intel Mac OS X 10_15_7) AppleWebKit/537.36 (KHTML, like Gecko) Chrome/119.0.0.0 Safari/537.36",Macintosh,Chrome,119.0.0.0,OS X,10_15_7,null,"en-US,en;q=0.9",,null,[object Object],,,,,,,,,,,,,,
651,sound/400,,audio-keyboard-response,132,225875,0.0-9.0-1.19,3,1,2023-11-23 18:34:09,eecec3b7625347bf626f9f05527b35f8,96.242.234.213,"Mozilla/5.0 (Macintosh; Intel Mac OS X 10_15_7) AppleWebKit/537.36 (KHTML, like Gecko) Chrome/119.0.0.0 Safari/537.36",Macintosh,Chrome,119.0.0.0,OS X,10_15_7,null,"en-US,en;q=0.9",,32,,generalization,space,negative,1,300,700,q,,TRUE,400,100,19,FALSE,
651,,,html-keyboard-response,133,226885,0.0-9.0-2.19,3,1,2023-11-23 18:34:09,eecec3b7625347bf626f9f05527b35f8,96.242.234.213,"Mozilla/5.0 (Macintosh; Intel Mac OS X 10_15_7) AppleWebKit/537.36 (KHTML, like Gecko) Chrome/119.0.0.0 Safari/537.36",Macintosh,Chrome,119.0.0.0,OS X,10_15_7,null,"en-US,en;q=0.9",,null,,,,,,,,,,,,,,,
651,,,html-keyboard-response,134,227394,0.0-9.0-0.20,3,1,2023-11-23 18:34:09,eecec3b7625347bf626f9f05527b35f8,96.242.234.213,"Mozilla/5.0 (Macintosh; Intel Mac OS X 10_15_7) AppleWebKit/537.36 (KHTML, like Gecko) Chrome/119.0.0.0 Safari/537.36",Macintosh,Chrome,119.0.0.0,OS X,10_15_7,null,"en-US,en;q=0.9",,null,[object Object],,,,,,,,,,,,,,
651,sound/900,,audio-keyboard-response,135,227864,0.0-9.0-1.20,3,1,2023-11-23 18:34:09,eecec3b7625347bf626f9f05527b35f8,96.242.234.213,"Mozilla/5.0 (Macintosh; Intel Mac OS X 10_15_7) AppleWebKit/537.36 (KHTML, like Gecko) Chrome/119.0.0.0 Safari/537.36",Macintosh,Chrome,119.0.0.0,OS X,10_15_7,null,"en-US,en;q=0.9",,80,,generalization,space,control,1,300,700,q,,FALSE,,NaN,20,,
651,,,html-keyboard-response,136,228870,0.0-9.0-2.20,3,1,2023-11-23 18:34:09,eecec3b7625347bf626f9f05527b35f8,96.242.234.213,"Mozilla/5.0 (Macintosh; Intel Mac OS X 10_15_7) AppleWebKit/537.36 (KHTML, like Gecko) Chrome/119.0.0.0 Safari/537.36",Macintosh,Chrome,119.0.0.0,OS X,10_15_7,null,"en-US,en;q=0.9",,null,,,,,,,,,,,,,,,
651,,,html-keyboard-response,137,229379,0.0-9.0-0.21,3,1,2023-11-23 18:34:09,eecec3b7625347bf626f9f05527b35f8,96.242.234.213,"Mozilla/5.0 (Macintosh; Intel Mac OS X 10_15_7) AppleWebKit/537.36 (KHTML, like Gecko) Chrome/119.0.0.0 Safari/537.36",Macintosh,Chrome,119.0.0.0,OS X,10_15_7,null,"en-US,en;q=0.9",,null,[object Object],,,,,,,,,,,,,,
651,sound/305,,audio-keyboard-response,138,230279,0.0-9.0-1.21,3,1,2023-11-23 18:34:09,eecec3b7625347bf626f9f05527b35f8,96.242.234.213,"Mozilla/5.0 (Macintosh; Intel Mac OS X 10_15_7) AppleWebKit/537.36 (KHTML, like Gecko) Chrome/119.0.0.0 Safari/537.36",Macintosh,Chrome,119.0.0.0,OS X,10_15_7,null,"en-US,en;q=0.9",,81,,generalization,space,negative,1,300,700,q,,FALSE,305,5,21,TRUE,
651,,,html-keyboard-response,139,231288,0.0-9.0-2.21,3,1,2023-11-23 18:34:09,eecec3b7625347bf626f9f05527b35f8,96.242.234.213,"Mozilla/5.0 (Macintosh; Intel Mac OS X 10_15_7) AppleWebKit/537.36 (KHTML, like Gecko) Chrome/119.0.0.0 Safari/537.36",Macintosh,Chrome,119.0.0.0,OS X,10_15_7,null,"en-US,en;q=0.9",,null,,,,,,,,,,,,,,,
651,,,html-keyboard-response,140,231797,0.0-9.0-0.22,3,1,2023-11-23 18:34:09,eecec3b7625347bf626f9f05527b35f8,96.242.234.213,"Mozilla/5.0 (Macintosh; Intel Mac OS X 10_15_7) AppleWebKit/537.36 (KHTML, like Gecko) Chrome/119.0.0.0 Safari/537.36",Macintosh,Chrome,119.0.0.0,OS X,10_15_7,null,"en-US,en;q=0.9",,null,[object Object],,,,,,,,,,,,,,
651,sound/295,,audio-keyboard-response,141,232597,0.0-9.0-1.22,3,1,2023-11-23 18:34:09,eecec3b7625347bf626f9f05527b35f8,96.242.234.213,"Mozilla/5.0 (Macintosh; Intel Mac OS X 10_15_7) AppleWebKit/537.36 (KHTML, like Gecko) Chrome/119.0.0.0 Safari/537.36",Macintosh,Chrome,119.0.0.0,OS X,10_15_7,null,"en-US,en;q=0.9",,81,,generalization,space,negative,1,300,700,q,,FALSE,295,-5,22,TRUE,
651,,,html-keyboard-response,142,233607,0.0-9.0-2.22,3,1,2023-11-23 18:34:09,eecec3b7625347bf626f9f05527b35f8,96.242.234.213,"Mozilla/5.0 (Macintosh; Intel Mac OS X 10_15_7) AppleWebKit/537.36 (KHTML, like Gecko) Chrome/119.0.0.0 Safari/537.36",Macintosh,Chrome,119.0.0.0,OS X,10_15_7,null,"en-US,en;q=0.9",,null,,,,,,,,,,,,,,,
651,,,html-keyboard-response,143,234114,0.0-9.0-0.23,3,1,2023-11-23 18:34:09,eecec3b7625347bf626f9f05527b35f8,96.242.234.213,"Mozilla/5.0 (Macintosh; Intel Mac OS X 10_15_7) AppleWebKit/537.36 (KHTML, like Gecko) Chrome/119.0.0.0 Safari/537.36",Macintosh,Chrome,119.0.0.0,OS X,10_15_7,null,"en-US,en;q=0.9",,null,[object Object],,,,,,,,,,,,,,
651,sound/720,,audio-keyboard-response,144,234575,0.0-9.0-1.23,3,1,2023-11-23 18:34:09,eecec3b7625347bf626f9f05527b35f8,96.242.234.213,"Mozilla/5.0 (Macintosh; Intel Mac OS X 10_15_7) AppleWebKit/537.36 (KHTML, like Gecko) Chrome/119.0.0.0 Safari/537.36",Macintosh,Chrome,119.0.0.0,OS X,10_15_7,null,"en-US,en;q=0.9",,80,,generalization,space,positive,1,300,700,q,,FALSE,720,20,23,TRUE,
651,,,html-keyboard-response,145,235584,0.0-9.0-2.23,3,1,2023-11-23 18:34:09,eecec3b7625347bf626f9f05527b35f8,96.242.234.213,"Mozilla/5.0 (Macintosh; Intel Mac OS X 10_15_7) AppleWebKit/537.36 (KHTML, like Gecko) Chrome/119.0.0.0 Safari/537.36",Macintosh,Chrome,119.0.0.0,OS X,10_15_7,null,"en-US,en;q=0.9",,null,,,,,,,,,,,,,,,
651,,,html-keyboard-response,146,236094,0.0-9.0-0.24,3,1,2023-11-23 18:34:09,eecec3b7625347bf626f9f05527b35f8,96.242.234.213,"Mozilla/5.0 (Macintosh; Intel Mac OS X 10_15_7) AppleWebKit/537.36 (KHTML, like Gecko) Chrome/119.0.0.0 Safari/537.36",Macintosh,Chrome,119.0.0.0,OS X,10_15_7,null,"en-US,en;q=0.9",,null,[object Object],,,,,,,,,,,,,,
651,sound/200,,audio-keyboard-response,147,236622,0.0-9.0-1.24,3,1,2023-11-23 18:34:09,eecec3b7625347bf626f9f05527b35f8,96.242.234.213,"Mozilla/5.0 (Macintosh; Intel Mac OS X 10_15_7) AppleWebKit/537.36 (KHTML, like Gecko) Chrome/119.0.0.0 Safari/537.36",Macintosh,Chrome,119.0.0.0,OS X,10_15_7,null,"en-US,en;q=0.9",,81,,generalization,space,negative,1,300,700,q,,FALSE,200,-100,24,TRUE,
651,,,html-keyboard-response,148,237632,0.0-9.0-2.24,3,1,2023-11-23 18:34:09,eecec3b7625347bf626f9f05527b35f8,96.242.234.213,"Mozilla/5.0 (Macintosh; Intel Mac OS X 10_15_7) AppleWebKit/537.36 (KHTML, like Gecko) Chrome/119.0.0.0 Safari/537.36",Macintosh,Chrome,119.0.0.0,OS X,10_15_7,null,"en-US,en;q=0.9",,null,,,,,,,,,,,,,,,
651,,,html-keyboard-response,149,238149,0.0-9.0-0.25,3,1,2023-11-23 18:34:09,eecec3b7625347bf626f9f05527b35f8,96.242.234.213,"Mozilla/5.0 (Macintosh; Intel Mac OS X 10_15_7) AppleWebKit/537.36 (KHTML, like Gecko) Chrome/119.0.0.0 Safari/537.36",Macintosh,Chrome,119.0.0.0,OS X,10_15_7,null,"en-US,en;q=0.9",,null,[object Object],,,,,,,,,,,,,,
651,sound/300,,audio-keyboard-response,150,238453,0.0-9.0-1.25,3,1,2023-11-23 18:34:09,eecec3b7625347bf626f9f05527b35f8,96.242.234.213,"Mozilla/5.0 (Macintosh; Intel Mac OS X 10_15_7) AppleWebKit/537.36 (KHTML, like Gecko) Chrome/119.0.0.0 Safari/537.36",Macintosh,Chrome,119.0.0.0,OS X,10_15_7,null,"en-US,en;q=0.9",,32,,generalization,q,negative,1,300,700,q,,FALSE,,0,25,FALSE,
651,,,html-keyboard-response,151,239462,0.0-9.0-2.25,3,1,2023-11-23 18:34:09,eecec3b7625347bf626f9f05527b35f8,96.242.234.213,"Mozilla/5.0 (Macintosh; Intel Mac OS X 10_15_7) AppleWebKit/537.36 (KHTML, like Gecko) Chrome/119.0.0.0 Safari/537.36",Macintosh,Chrome,119.0.0.0,OS X,10_15_7,null,"en-US,en;q=0.9",,null,,,,,,,,,,,,,,,
651,,,html-keyboard-response,152,239973,0.0-9.0-0.26,3,1,2023-11-23 18:34:09,eecec3b7625347bf626f9f05527b35f8,96.242.234.213,"Mozilla/5.0 (Macintosh; Intel Mac OS X 10_15_7) AppleWebKit/537.36 (KHTML, like Gecko) Chrome/119.0.0.0 Safari/537.36",Macintosh,Chrome,119.0.0.0,OS X,10_15_7,null,"en-US,en;q=0.9",,null,[object Object],,,,,,,,,,,,,,
651,sound/920,,audio-keyboard-response,153,240288,0.0-9.0-1.26,3,1,2023-11-23 18:34:09,eecec3b7625347bf626f9f05527b35f8,96.242.234.213,"Mozilla/5.0 (Macintosh; Intel Mac OS X 10_15_7) AppleWebKit/537.36 (KHTML, like Gecko) Chrome/119.0.0.0 Safari/537.36",Macintosh,Chrome,119.0.0.0,OS X,10_15_7,null,"en-US,en;q=0.9",,32,,generalization,space,control,1,300,700,q,,TRUE,,NaN,26,,
651,,,html-keyboard-response,154,241299,0.0-9.0-2.26,3,1,2023-11-23 18:34:09,eecec3b7625347bf626f9f05527b35f8,96.242.234.213,"Mozilla/5.0 (Macintosh; Intel Mac OS X 10_15_7) AppleWebKit/537.36 (KHTML, like Gecko) Chrome/119.0.0.0 Safari/537.36",Macintosh,Chrome,119.0.0.0,OS X,10_15_7,null,"en-US,en;q=0.9",,null,,,,,,,,,,,,,,,
651,,,html-keyboard-response,155,241807,0.0-9.0-0.27,3,1,2023-11-23 18:34:09,eecec3b7625347bf626f9f05527b35f8,96.242.234.213,"Mozilla/5.0 (Macintosh; Intel Mac OS X 10_15_7) AppleWebKit/537.36 (KHTML, like Gecko) Chrome/119.0.0.0 Safari/537.36",Macintosh,Chrome,119.0.0.0,OS X,10_15_7,null,"en-US,en;q=0.9",,null,[object Object],,,,,,,,,,,,,,
651,sound/600,,audio-keyboard-response,156,242484,0.0-9.0-1.27,3,1,2023-11-23 18:34:09,eecec3b7625347bf626f9f05527b35f8,96.242.234.213,"Mozilla/5.0 (Macintosh; Intel Mac OS X 10_15_7) AppleWebKit/537.36 (KHTML, like Gecko) Chrome/119.0.0.0 Safari/537.36",Macintosh,Chrome,119.0.0.0,OS X,10_15_7,null,"en-US,en;q=0.9",,80,,generalization,space,positive,1,300,700,q,,FALSE,600,-100,27,TRUE,
651,,,html-keyboard-response,157,243494,0.0-9.0-2.27,3,1,2023-11-23 18:34:09,eecec3b7625347bf626f9f05527b35f8,96.242.234.213,"Mozilla/5.0 (Macintosh; Intel Mac OS X 10_15_7) AppleWebKit/537.36 (KHTML, like Gecko) Chrome/119.0.0.0 Safari/537.36",Macintosh,Chrome,119.0.0.0,OS X,10_15_7,null,"en-US,en;q=0.9",,null,,,,,,,,,,,,,,,
651,,,html-keyboard-response,158,244008,0.0-9.0-0.28,3,1,2023-11-23 18:34:09,eecec3b7625347bf626f9f05527b35f8,96.242.234.213,"Mozilla/5.0 (Macintosh; Intel Mac OS X 10_15_7) AppleWebKit/537.36 (KHTML, like Gecko) Chrome/119.0.0.0 Safari/537.36",Macintosh,Chrome,119.0.0.0,OS X,10_15_7,null,"en-US,en;q=0.9",,null,[object Object],,,,,,,,,,,,,,
651,sound/700,,audio-keyboard-response,159,244455,0.0-9.0-1.28,3,1,2023-11-23 18:34:09,eecec3b7625347bf626f9f05527b35f8,96.242.234.213,"Mozilla/5.0 (Macintosh; Intel Mac OS X 10_15_7) AppleWebKit/537.36 (KHTML, like Gecko) Chrome/119.0.0.0 Safari/537.36",Macintosh,Chrome,119.0.0.0,OS X,10_15_7,null,"en-US,en;q=0.9",,81,,generalization,p,positive,1,300,700,q,,FALSE,,0,28,FALSE,
651,,,html-keyboard-response,160,245462,0.0-9.0-2.28,3,1,2023-11-23 18:34:09,eecec3b7625347bf626f9f05527b35f8,96.242.234.213,"Mozilla/5.0 (Macintosh; Intel Mac OS X 10_15_7) AppleWebKit/537.36 (KHTML, like Gecko) Chrome/119.0.0.0 Safari/537.36",Macintosh,Chrome,119.0.0.0,OS X,10_15_7,null,"en-US,en;q=0.9",,null,,,,,,,,,,,,,,,
651,,,html-keyboard-response,161,245975,0.0-9.0-0.29,3,1,2023-11-23 18:34:09,eecec3b7625347bf626f9f05527b35f8,96.242.234.213,"Mozilla/5.0 (Macintosh; Intel Mac OS X 10_15_7) AppleWebKit/537.36 (KHTML, like Gecko) Chrome/119.0.0.0 Safari/537.36",Macintosh,Chrome,119.0.0.0,OS X,10_15_7,null,"en-US,en;q=0.9",,null,[object Object],,,,,,,,,,,,,,
651,sound/300,,audio-keyboard-response,162,246490,0.0-9.0-1.29,3,1,2023-11-23 18:34:09,eecec3b7625347bf626f9f05527b35f8,96.242.234.213,"Mozilla/5.0 (Macintosh; Intel Mac OS X 10_15_7) AppleWebKit/537.36 (KHTML, like Gecko) Chrome/119.0.0.0 Safari/537.36",Macintosh,Chrome,119.0.0.0,OS X,10_15_7,null,"en-US,en;q=0.9",,32,,generalization,q,negative,1,300,700,q,,FALSE,,0,29,FALSE,
651,,,html-keyboard-response,163,247499,0.0-9.0-2.29,3,1,2023-11-23 18:34:09,eecec3b7625347bf626f9f05527b35f8,96.242.234.213,"Mozilla/5.0 (Macintosh; Intel Mac OS X 10_15_7) AppleWebKit/537.36 (KHTML, like Gecko) Chrome/119.0.0.0 Safari/537.36",Macintosh,Chrome,119.0.0.0,OS X,10_15_7,null,"en-US,en;q=0.9",,null,,,,,,,,,,,,,,,
651,bonus earned during this period: $0.32<br><br>Press any key to continue.,,html-keyboard-response,164,249986,0.0-10.0,3,1,2023-11-23 18:34:09,eecec3b7625347bf626f9f05527b35f8,96.242.234.213,"Mozilla/5.0 (Macintosh; Intel Mac OS X 10_15_7) AppleWebKit/537.36 (KHTML, like Gecko) Chrome/119.0.0.0 Safari/537.36",Macintosh,Chrome,119.0.0.0,OS X,10_15_7,null,"en-US,en;q=0.9",,32,,,,,,,,,,,,,,,
651,,,instructions,165,256241,0.0-11.0,3,1,2023-11-23 18:34:09,eecec3b7625347bf626f9f05527b35f8,96.242.234.213,"Mozilla/5.0 (Macintosh; Intel Mac OS X 10_15_7) AppleWebKit/537.36 (KHTML, like Gecko) Chrome/119.0.0.0 Safari/537.36",Macintosh,Chrome,119.0.0.0,OS X,10_15_7,null,"en-US,en;q=0.9","[{""page_index"":0,""viewing_time"":6250}]",,,,,,,,,,,,,,,,
651,"<div style=""font-size:120%; top:20%""></div>",,html-keyboard-response,166,257652,0.0-12.0-0.0,3,1,2023-11-23 18:34:09,eecec3b7625347bf626f9f05527b35f8,96.242.234.213,"Mozilla/5.0 (Macintosh; Intel Mac OS X 10_15_7) AppleWebKit/537.36 (KHTML, like Gecko) Chrome/119.0.0.0 Safari/537.36",Macintosh,Chrome,119.0.0.0,OS X,10_15_7,null,"en-US,en;q=0.9",,null,[object Object],,,,,,,,,,,,,,
651,sound/300,,audio-keyboard-response,167,259239,0.0-12.0-1.0,3,1,2023-11-23 18:34:09,eecec3b7625347bf626f9f05527b35f8,96.242.234.213,"Mozilla/5.0 (Macintosh; Intel Mac OS X 10_15_7) AppleWebKit/537.36 (KHTML, like Gecko) Chrome/119.0.0.0 Safari/537.36",Macintosh,Chrome,119.0.0.0,OS X,10_15_7,null,"en-US,en;q=0.9",,80,,acquisition,q,negative,2,300,700,q,300,,,,,,
651,"<font size=""100%"" weight=bold> - $0.04</font>",,html-keyboard-response,168,260347,0.0-12.0-2.0,3,1,2023-11-23 18:34:09,eecec3b7625347bf626f9f05527b35f8,96.242.234.213,"Mozilla/5.0 (Macintosh; Intel Mac OS X 10_15_7) AppleWebKit/537.36 (KHTML, like Gecko) Chrome/119.0.0.0 Safari/537.36",Macintosh,Chrome,119.0.0.0,OS X,10_15_7,null,"en-US,en;q=0.9",,null,,,,,,,,,,,,,,,
651,"<div style=""font-size:120%; top:20%""></div>",,html-keyboard-response,169,261858,0.0-12.0-0.1,3,1,2023-11-23 18:34:09,eecec3b7625347bf626f9f05527b35f8,96.242.234.213,"Mozilla/5.0 (Macintosh; Intel Mac OS X 10_15_7) AppleWebKit/537.36 (KHTML, like Gecko) Chrome/119.0.0.0 Safari/537.36",Macintosh,Chrome,119.0.0.0,OS X,10_15_7,null,"en-US,en;q=0.9",,null,[object Object],,,,,,,,,,,,,,
651,sound/700,,audio-keyboard-response,170,263005,0.0-12.0-1.1,3,1,2023-11-23 18:34:09,eecec3b7625347bf626f9f05527b35f8,96.242.234.213,"Mozilla/5.0 (Macintosh; Intel Mac OS X 10_15_7) AppleWebKit/537.36 (KHTML, like Gecko) Chrome/119.0.0.0 Safari/537.36",Macintosh,Chrome,119.0.0.0,OS X,10_15_7,null,"en-US,en;q=0.9",,80,,acquisition,p,positive,2,300,700,q,700,,,,,,
651,"<font size=""100%"" weight=bold> + $0.00 </font>",,html-keyboard-response,171,264117,0.0-12.0-2.1,3,1,2023-11-23 18:34:09,eecec3b7625347bf626f9f05527b35f8,96.242.234.213,"Mozilla/5.0 (Macintosh; Intel Mac OS X 10_15_7) AppleWebKit/537.36 (KHTML, like Gecko) Chrome/119.0.0.0 Safari/537.36",Macintosh,Chrome,119.0.0.0,OS X,10_15_7,null,"en-US,en;q=0.9",,null,,,,,,,,,,,,,,,
651,"<div style=""font-size:120%; top:20%""></div>",,html-keyboard-response,172,265629,0.0-12.0-0.2,3,1,2023-11-23 18:34:09,eecec3b7625347bf626f9f05527b35f8,96.242.234.213,"Mozilla/5.0 (Macintosh; Intel Mac OS X 10_15_7) AppleWebKit/537.36 (KHTML, like Gecko) Chrome/119.0.0.0 Safari/537.36",Macintosh,Chrome,119.0.0.0,OS X,10_15_7,null,"en-US,en;q=0.9",,null,[object Object],,,,,,,,,,,,,,
651,sound/500,,audio-keyboard-response,173,267123,0.0-12.0-1.2,3,1,2023-11-23 18:34:09,eecec3b7625347bf626f9f05527b35f8,96.242.234.213,"Mozilla/5.0 (Macintosh; Intel Mac OS X 10_15_7) AppleWebKit/537.36 (KHTML, like Gecko) Chrome/119.0.0.0 Safari/537.36",Macintosh,Chrome,119.0.0.0,OS X,10_15_7,null,"en-US,en;q=0.9",,81,,acquisition,anything,neutral,2,300,700,Q,500,,,,,,
null,"<font size=""100%""></font>",,html-keyboard-response,174,268230,0.0-12.0-2.2,3,1,2023-11-23 18:34:09,eecec3b7625347bf626f9f05527b35f8,96.242.234.213,"Mozilla/5.0 (Macintosh; Intel Mac OS X 10_15_7) AppleWebKit/537.36 (KHTML, like Gecko) Chrome/119.0.0.0 Safari/537.36",Macintosh,Chrome,119.0.0.0,OS X,10_15_7,null,"en-US,en;q=0.9",,null,,,,,,,,,,,,,,,
null,"<div style=""font-size:120%; top:20%""></div>",,html-keyboard-response,175,269742,0.0-12.0-0.3,3,1,2023-11-23 18:34:09,eecec3b7625347bf626f9f05527b35f8,96.242.234.213,"Mozilla/5.0 (Macintosh; Intel Mac OS X 10_15_7) AppleWebKit/537.36 (KHTML, like Gecko) Chrome/119.0.0.0 Safari/537.36",Macintosh,Chrome,119.0.0.0,OS X,10_15_7,null,"en-US,en;q=0.9",,null,[object Object],,,,,,,,,,,,,,
1296,sound/500,,audio-keyboard-response,176,271045,0.0-12.0-1.3,3,1,2023-11-23 18:34:09,eecec3b7625347bf626f9f05527b35f8,96.242.234.213,"Mozilla/5.0 (Macintosh; Intel Mac OS X 10_15_7) AppleWebKit/537.36 (KHTML, like Gecko) Chrome/119.0.0.0 Safari/537.36",Macintosh,Chrome,119.0.0.0,OS X,10_15_7,null,"en-US,en;q=0.9",,81,,acquisition,anything,neutral,2,300,700,q,500,,,,,,
1296,"<font size=""100%""></font>",,html-keyboard-response,177,272152,0.0-12.0-2.3,3,1,2023-11-23 18:34:09,eecec3b7625347bf626f9f05527b35f8,96.242.234.213,"Mozilla/5.0 (Macintosh; Intel Mac OS X 10_15_7) AppleWebKit/537.36 (KHTML, like Gecko) Chrome/119.0.0.0 Safari/537.36",Macintosh,Chrome,119.0.0.0,OS X,10_15_7,null,"en-US,en;q=0.9",,null,,,,,,,,,,,,,,,
1296,"<div style=""font-size:120%; top:20%""></div>",,html-keyboard-response,178,273667,0.0-12.0-0.4,3,1,2023-11-23 18:34:09,eecec3b7625347bf626f9f05527b35f8,96.242.234.213,"Mozilla/5.0 (Macintosh; Intel Mac OS X 10_15_7) AppleWebKit/537.36 (KHTML, like Gecko) Chrome/119.0.0.0 Safari/537.36",Macintosh,Chrome,119.0.0.0,OS X,10_15_7,null,"en-US,en;q=0.9",,null,[object Object],,,,,,,,,,,,,,
1296,sound/700,,audio-keyboard-response,179,274674,0.0-12.0-1.4,3,1,2023-11-23 18:34:09,eecec3b7625347bf626f9f05527b35f8,96.242.234.213,"Mozilla/5.0 (Macintosh; Intel Mac OS X 10_15_7) AppleWebKit/537.36 (KHTML, like Gecko) Chrome/119.0.0.0 Safari/537.36",Macintosh,Chrome,119.0.0.0,OS X,10_15_7,null,"en-US,en;q=0.9",,81,,acquisition,p,positive,2,300,700,q,700,,,,,,
1296,"<font size=""100%"" weight=bold> + $0.00 </font>",,html-keyboard-response,180,275785,0.0-12.0-2.4,3,1,2023-11-23 18:34:09,eecec3b7625347bf626f9f05527b35f8,96.242.234.213,"Mozilla/5.0 (Macintosh; Intel Mac OS X 10_15_7) AppleWebKit/537.36 (KHTML, like Gecko) Chrome/119.0.0.0 Safari/537.36",Macintosh,Chrome,119.0.0.0,OS X,10_15_7,null,"en-US,en;q=0.9",,null,,,,,,,,,,,,,,,
1296,"<div style=""font-size:120%; top:20%""></div>",,html-keyboard-response,181,277301,0.0-12.0-0.5,3,1,2023-11-23 18:34:09,eecec3b7625347bf626f9f05527b35f8,96.242.234.213,"Mozilla/5.0 (Macintosh; Intel Mac OS X 10_15_7) AppleWebKit/537.36 (KHTML, like Gecko) Chrome/119.0.0.0 Safari/537.36",Macintosh,Chrome,119.0.0.0,OS X,10_15_7,null,"en-US,en;q=0.9",,null,[object Object],,,,,,,,,,,,,,
1296,sound/300,,audio-keyboard-response,182,279808,0.0-12.0-1.5,3,1,2023-11-23 18:34:09,eecec3b7625347bf626f9f05527b35f8,96.242.234.213,"Mozilla/5.0 (Macintosh; Intel Mac OS X 10_15_7) AppleWebKit/537.36 (KHTML, like Gecko) Chrome/119.0.0.0 Safari/537.36",Macintosh,Chrome,119.0.0.0,OS X,10_15_7,null,"en-US,en;q=0.9",,null,,acquisition,anything,negative,2,300,700,q,300,FALSE,,,,,
1296,"<font size=""100%"" weight=bold> - $0.04</font>",,html-keyboard-response,183,280920,0.0-12.0-2.5,3,1,2023-11-23 18:34:09,eecec3b7625347bf626f9f05527b35f8,96.242.234.213,"Mozilla/5.0 (Macintosh; Intel Mac OS X 10_15_7) AppleWebKit/537.36 (KHTML, like Gecko) Chrome/119.0.0.0 Safari/537.36",Macintosh,Chrome,119.0.0.0,OS X,10_15_7,null,"en-US,en;q=0.9",,null,,,,,,,,,,,,,,,
1296,"<div style=""font-size:120%; top:20%""></div>",,html-keyboard-response,184,282436,0.0-12.0-0.6,3,1,2023-11-23 18:34:09,eecec3b7625347bf626f9f05527b35f8,96.242.234.213,"Mozilla/5.0 (Macintosh; Intel Mac OS X 10_15_7) AppleWebKit/537.36 (KHTML, like Gecko) Chrome/119.0.0.0 Safari/537.36",Macintosh,Chrome,119.0.0.0,OS X,10_15_7,null,"en-US,en;q=0.9",,null,[object Object],,,,,,,,,,,,,,
1296,sound/700,,audio-keyboard-response,185,284943,0.0-12.0-1.6,3,1,2023-11-23 18:34:09,eecec3b7625347bf626f9f05527b35f8,96.242.234.213,"Mozilla/5.0 (Macintosh; Intel Mac OS X 10_15_7) AppleWebKit/537.36 (KHTML, like Gecko) Chrome/119.0.0.0 Safari/537.36",Macintosh,Chrome,119.0.0.0,OS X,10_15_7,null,"en-US,en;q=0.9",,null,,acquisition,p,positive,2,300,700,q,700,,,,,,
1296,"<font size=""100%"" weight=bold> + $0.00 </font>",,html-keyboard-response,186,286056,0.0-12.0-2.6,3,1,2023-11-23 18:34:09,eecec3b7625347bf626f9f05527b35f8,96.242.234.213,"Mozilla/5.0 (Macintosh; Intel Mac OS X 10_15_7) AppleWebKit/537.36 (KHTML, like Gecko) Chrome/119.0.0.0 Safari/537.36",Macintosh,Chrome,119.0.0.0,OS X,10_15_7,null,"en-US,en;q=0.9",,null,,,,,,,,,,,,,,,
1296,"<div style=""font-size:120%; top:20%""></div>",,html-keyboard-response,187,287568,0.0-12.0-0.7,3,1,2023-11-23 18:34:09,eecec3b7625347bf626f9f05527b35f8,96.242.234.213,"Mozilla/5.0 (Macintosh; Intel Mac OS X 10_15_7) AppleWebKit/537.36 (KHTML, like Gecko) Chrome/119.0.0.0 Safari/537.36",Macintosh,Chrome,119.0.0.0,OS X,10_15_7,null,"en-US,en;q=0.9",,null,[object Object],,,,,,,,,,,,,,
1296,sound/300,,audio-keyboard-response,188,288235,0.0-12.0-1.7,3,1,2023-11-23 18:34:09,eecec3b7625347bf626f9f05527b35f8,96.242.234.213,"Mozilla/5.0 (Macintosh; Intel Mac OS X 10_15_7) AppleWebKit/537.36 (KHTML, like Gecko) Chrome/119.0.0.0 Safari/537.36",Macintosh,Chrome,119.0.0.0,OS X,10_15_7,null,"en-US,en;q=0.9",,81,,acquisition,q,negative,2,300,700,q,300,,,,,,
1296,"<font size=""100%"" weight=bold> - $0.04</font>",,html-keyboard-response,189,289341,0.0-12.0-2.7,3,1,2023-11-23 18:34:09,eecec3b7625347bf626f9f05527b35f8,96.242.234.213,"Mozilla/5.0 (Macintosh; Intel Mac OS X 10_15_7) AppleWebKit/537.36 (KHTML, like Gecko) Chrome/119.0.0.0 Safari/537.36",Macintosh,Chrome,119.0.0.0,OS X,10_15_7,null,"en-US,en;q=0.9",,null,,,,,,,,,,,,,,,
1296,"<div style=""font-size:120%; top:20%""></div>",,html-keyboard-response,190,290853,0.0-12.0-0.8,3,1,2023-11-23 18:34:09,eecec3b7625347bf626f9f05527b35f8,96.242.234.213,"Mozilla/5.0 (Macintosh; Intel Mac OS X 10_15_7) AppleWebKit/537.36 (KHTML, like Gecko) Chrome/119.0.0.0 Safari/537.36",Macintosh,Chrome,119.0.0.0,OS X,10_15_7,null,"en-US,en;q=0.9",,null,[object Object],,,,,,,,,,,,,,
1296,sound/500,,audio-keyboard-response,191,292229,0.0-12.0-1.8,3,1,2023-11-23 18:34:09,eecec3b7625347bf626f9f05527b35f8,96.242.234.213,"Mozilla/5.0 (Macintosh; Intel Mac OS X 10_15_7) AppleWebKit/537.36 (KHTML, like Gecko) Chrome/119.0.0.0 Safari/537.36",Macintosh,Chrome,119.0.0.0,OS X,10_15_7,null,"en-US,en;q=0.9",,80,,acquisition,anything,neutral,2,300,700,q,500,,,,,,
1296,"<font size=""100%""></font>",,html-keyboard-response,192,293337,0.0-12.0-2.8,3,1,2023-11-23 18:34:09,eecec3b7625347bf626f9f05527b35f8,96.242.234.213,"Mozilla/5.0 (Macintosh; Intel Mac OS X 10_15_7) AppleWebKit/537.36 (KHTML, like Gecko) Chrome/119.0.0.0 Safari/537.36",Macintosh,Chrome,119.0.0.0,OS X,10_15_7,null,"en-US,en;q=0.9",,null,,,,,,,,,,,,,,,
1296,"<div style=""font-size:120%; top:20%""></div>",,html-keyboard-response,193,294847,0.0-12.0-0.9,3,1,2023-11-23 18:34:09,eecec3b7625347bf626f9f05527b35f8,96.242.234.213,"Mozilla/5.0 (Macintosh; Intel Mac OS X 10_15_7) AppleWebKit/537.36 (KHTML, like Gecko) Chrome/119.0.0.0 Safari/537.36",Macintosh,Chrome,119.0.0.0,OS X,10_15_7,null,"en-US,en;q=0.9",,null,[object Object],,,,,,,,,,,,,,
1296,sound/300,,audio-keyboard-response,194,297208,0.0-12.0-1.9,3,1,2023-11-23 18:34:09,eecec3b7625347bf626f9f05527b35f8,96.242.234.213,"Mozilla/5.0 (Macintosh; Intel Mac OS X 10_15_7) AppleWebKit/537.36 (KHTML, like Gecko) Chrome/119.0.0.0 Safari/537.36",Macintosh,Chrome,119.0.0.0,OS X,10_15_7,null,"en-US,en;q=0.9",,80,,acquisition,q,negative,2,300,700,q,300,,,,,,
1296,"<font size=""100%"" weight=bold> - $0.04</font>",,html-keyboard-response,195,298317,0.0-12.0-2.9,3,1,2023-11-23 18:34:09,eecec3b7625347bf626f9f05527b35f8,96.242.234.213,"Mozilla/5.0 (Macintosh; Intel Mac OS X 10_15_7) AppleWebKit/537.36 (KHTML, like Gecko) Chrome/119.0.0.0 Safari/537.36",Macintosh,Chrome,119.0.0.0,OS X,10_15_7,null,"en-US,en;q=0.9",,null,,,,,,,,,,,,,,,
1296,"<div style=""font-size:120%; top:20%""></div>",,html-keyboard-response,196,299836,0.0-12.0-0.10,3,1,2023-11-23 18:34:09,eecec3b7625347bf626f9f05527b35f8,96.242.234.213,"Mozilla/5.0 (Macintosh; Intel Mac OS X 10_15_7) AppleWebKit/537.36 (KHTML, like Gecko) Chrome/119.0.0.0 Safari/537.36",Macintosh,Chrome,119.0.0.0,OS X,10_15_7,null,"en-US,en;q=0.9",,null,[object Object],,,,,,,,,,,,,,
1296,sound/700,,audio-keyboard-response,197,302345,0.0-12.0-1.10,3,1,2023-11-23 18:34:09,eecec3b7625347bf626f9f05527b35f8,96.242.234.213,"Mozilla/5.0 (Macintosh; Intel Mac OS X 10_15_7) AppleWebKit/537.36 (KHTML, like Gecko) Chrome/119.0.0.0 Safari/537.36",Macintosh,Chrome,119.0.0.0,OS X,10_15_7,null,"en-US,en;q=0.9",,81,,acquisition,anything,positive,2,300,700,q,700,TRUE,,,,,
1296,"<font size=""100%"" weight=bold> + $0.04</font>",,html-keyboard-response,198,303458,0.0-12.0-2.10,3,1,2023-11-23 18:34:09,eecec3b7625347bf626f9f05527b35f8,96.242.234.213,"Mozilla/5.0 (Macintosh; Intel Mac OS X 10_15_7) AppleWebKit/537.36 (KHTML, like Gecko) Chrome/119.0.0.0 Safari/537.36",Macintosh,Chrome,119.0.0.0,OS X,10_15_7,null,"en-US,en;q=0.9",,null,,,,,,,,,,,,,,,
1296,"<div style=""font-size:120%; top:20%""></div>",,html-keyboard-response,199,304979,0.0-12.0-0.11,3,1,2023-11-23 18:34:09,eecec3b7625347bf626f9f05527b35f8,96.242.234.213,"Mozilla/5.0 (Macintosh; Intel Mac OS X 10_15_7) AppleWebKit/537.36 (KHTML, like Gecko) Chrome/119.0.0.0 Safari/537.36",Macintosh,Chrome,119.0.0.0,OS X,10_15_7,null,"en-US,en;q=0.9",,null,[object Object],,,,,,,,,,,,,,
1296,sound/300,,audio-keyboard-response,200,305591,0.0-12.0-1.11,3,1,2023-11-23 18:34:09,eecec3b7625347bf626f9f05527b35f8,96.242.234.213,"Mozilla/5.0 (Macintosh; Intel Mac OS X 10_15_7) AppleWebKit/537.36 (KHTML, like Gecko) Chrome/119.0.0.0 Safari/537.36",Macintosh,Chrome,119.0.0.0,OS X,10_15_7,null,"en-US,en;q=0.9",,80,,acquisition,q,negative,2,300,700,q,300,,,,,,
1296,"<font size=""100%"" weight=bold> - $0.04</font>",,html-keyboard-response,201,306699,0.0-12.0-2.11,3,1,2023-11-23 18:34:09,eecec3b7625347bf626f9f05527b35f8,96.242.234.213,"Mozilla/5.0 (Macintosh; Intel Mac OS X 10_15_7) AppleWebKit/537.36 (KHTML, like Gecko) Chrome/119.0.0.0 Safari/537.36",Macintosh,Chrome,119.0.0.0,OS X,10_15_7,null,"en-US,en;q=0.9",,null,,,,,,,,,,,,,,,
1296,"<div style=""font-size:120%; top:20%""></div>",,html-keyboard-response,202,308214,0.0-12.0-0.12,3,1,2023-11-23 18:34:09,eecec3b7625347bf626f9f05527b35f8,96.242.234.213,"Mozilla/5.0 (Macintosh; Intel Mac OS X 10_15_7) AppleWebKit/537.36 (KHTML, like Gecko) Chrome/119.0.0.0 Safari/537.36",Macintosh,Chrome,119.0.0.0,OS X,10_15_7,null,"en-US,en;q=0.9",,null,[object Object],,,,,,,,,,,,,,
1296,sound/500,,audio-keyboard-response,203,308838,0.0-12.0-1.12,3,1,2023-11-23 18:34:09,eecec3b7625347bf626f9f05527b35f8,96.242.234.213,"Mozilla/5.0 (Macintosh; Intel Mac OS X 10_15_7) AppleWebKit/537.36 (KHTML, like Gecko) Chrome/119.0.0.0 Safari/537.36",Macintosh,Chrome,119.0.0.0,OS X,10_15_7,null,"en-US,en;q=0.9",,81,,acquisition,anything,neutral,2,300,700,q,500,,,,,,
1296,"<font size=""100%""></font>",,html-keyboard-response,204,309948,0.0-12.0-2.12,3,1,2023-11-23 18:34:09,eecec3b7625347bf626f9f05527b35f8,96.242.234.213,"Mozilla/5.0 (Macintosh; Intel Mac OS X 10_15_7) AppleWebKit/537.36 (KHTML, like Gecko) Chrome/119.0.0.0 Safari/537.36",Macintosh,Chrome,119.0.0.0,OS X,10_15_7,null,"en-US,en;q=0.9",,null,,,,,,,,,,,,,,,
1296,"<div style=""font-size:120%; top:20%""></div>",,html-keyboard-response,205,311465,0.0-12.0-0.13,3,1,2023-11-23 18:34:09,eecec3b7625347bf626f9f05527b35f8,96.242.234.213,"Mozilla/5.0 (Macintosh; Intel Mac OS X 10_15_7) AppleWebKit/537.36 (KHTML, like Gecko) Chrome/119.0.0.0 Safari/537.36",Macintosh,Chrome,119.0.0.0,OS X,10_15_7,null,"en-US,en;q=0.9",,null,[object Object],,,,,,,,,,,,,,
1296,sound/700,,audio-keyboard-response,206,313975,0.0-12.0-1.13,3,1,2023-11-23 18:34:09,eecec3b7625347bf626f9f05527b35f8,96.242.234.213,"Mozilla/5.0 (Macintosh; Intel Mac OS X 10_15_7) AppleWebKit/537.36 (KHTML, like Gecko) Chrome/119.0.0.0 Safari/537.36",Macintosh,Chrome,119.0.0.0,OS X,10_15_7,null,"en-US,en;q=0.9",,80,,acquisition,anything,positive,2,300,700,q,700,TRUE,,,,,
1296,"<font size=""100%"" weight=bold> + $0.04</font>",,html-keyboard-response,207,315083,0.0-12.0-2.13,3,1,2023-11-23 18:34:09,eecec3b7625347bf626f9f05527b35f8,96.242.234.213,"Mozilla/5.0 (Macintosh; Intel Mac OS X 10_15_7) AppleWebKit/537.36 (KHTML, like Gecko) Chrome/119.0.0.0 Safari/537.36",Macintosh,Chrome,119.0.0.0,OS X,10_15_7,null,"en-US,en;q=0.9",,null,,,,,,,,,,,,,,,
1296,"<div style=""font-size:120%; top:20%""></div>",,html-keyboard-response,208,316597,0.0-12.0-0.14,3,1,2023-11-23 18:34:09,eecec3b7625347bf626f9f05527b35f8,96.242.234.213,"Mozilla/5.0 (Macintosh; Intel Mac OS X 10_15_7) AppleWebKit/537.36 (KHTML, like Gecko) Chrome/119.0.0.0 Safari/537.36",Macintosh,Chrome,119.0.0.0,OS X,10_15_7,null,"en-US,en;q=0.9",,null,[object Object],,,,,,,,,,,,,,
1296,sound/700,,audio-keyboard-response,209,317471,0.0-12.0-1.14,3,1,2023-11-23 18:34:09,eecec3b7625347bf626f9f05527b35f8,96.242.234.213,"Mozilla/5.0 (Macintosh; Intel Mac OS X 10_15_7) AppleWebKit/537.36 (KHTML, like Gecko) Chrome/119.0.0.0 Safari/537.36",Macintosh,Chrome,119.0.0.0,OS X,10_15_7,null,"en-US,en;q=0.9",,80,,acquisition,p,positive,2,300,700,q,700,,,,,,
1296,"<font size=""100%"" weight=bold> + $0.00 </font>",,html-keyboard-response,210,318579,0.0-12.0-2.14,3,1,2023-11-23 18:34:09,eecec3b7625347bf626f9f05527b35f8,96.242.234.213,"Mozilla/5.0 (Macintosh; Intel Mac OS X 10_15_7) AppleWebKit/537.36 (KHTML, like Gecko) Chrome/119.0.0.0 Safari/537.36",Macintosh,Chrome,119.0.0.0,OS X,10_15_7,null,"en-US,en;q=0.9",,null,,,,,,,,,,,,,,,
1296,"<div style=""font-size:120%; top:20%""></div>",,html-keyboard-response,211,320087,0.0-12.0-0.15,3,1,2023-11-23 18:34:09,eecec3b7625347bf626f9f05527b35f8,96.242.234.213,"Mozilla/5.0 (Macintosh; Intel Mac OS X 10_15_7) AppleWebKit/537.36 (KHTML, like Gecko) Chrome/119.0.0.0 Safari/537.36",Macintosh,Chrome,119.0.0.0,OS X,10_15_7,null,"en-US,en;q=0.9",,null,[object Object],,,,,,,,,,,,,,
1296,sound/300,,audio-keyboard-response,212,320708,0.0-12.0-1.15,3,1,2023-11-23 18:34:09,eecec3b7625347bf626f9f05527b35f8,96.242.234.213,"Mozilla/5.0 (Macintosh; Intel Mac OS X 10_15_7) AppleWebKit/537.36 (KHTML, like Gecko) Chrome/119.0.0.0 Safari/537.36",Macintosh,Chrome,119.0.0.0,OS X,10_15_7,null,"en-US,en;q=0.9",,81,,acquisition,q,negative,2,300,700,q,300,,,,,,
1296,"<font size=""100%"" weight=bold> - $0.04</font>",,html-keyboard-response,213,321815,0.0-12.0-2.15,3,1,2023-11-23 18:34:09,eecec3b7625347bf626f9f05527b35f8,96.242.234.213,"Mozilla/5.0 (Macintosh; Intel Mac OS X 10_15_7) AppleWebKit/537.36 (KHTML, like Gecko) Chrome/119.0.0.0 Safari/537.36",Macintosh,Chrome,119.0.0.0,OS X,10_15_7,null,"en-US,en;q=0.9",,null,,,,,,,,,,,,,,,
1296,"<div style=""font-size:120%; top:20%""></div>",,html-keyboard-response,214,323329,0.0-12.0-0.16,3,1,2023-11-23 18:34:09,eecec3b7625347bf626f9f05527b35f8,96.242.234.213,"Mozilla/5.0 (Macintosh; Intel Mac OS X 10_15_7) AppleWebKit/537.36 (KHTML, like Gecko) Chrome/119.0.0.0 Safari/537.36",Macintosh,Chrome,119.0.0.0,OS X,10_15_7,null,"en-US,en;q=0.9",,null,[object Object],,,,,,,,,,,,,,
1296,sound/700,,audio-keyboard-response,215,324120,0.0-12.0-1.16,3,1,2023-11-23 18:34:09,eecec3b7625347bf626f9f05527b35f8,96.242.234.213,"Mozilla/5.0 (Macintosh; Intel Mac OS X 10_15_7) AppleWebKit/537.36 (KHTML, like Gecko) Chrome/119.0.0.0 Safari/537.36",Macintosh,Chrome,119.0.0.0,OS X,10_15_7,null,"en-US,en;q=0.9",,80,,acquisition,p,positive,2,300,700,q,700,,,,,,
1296,"<font size=""100%"" weight=bold> + $0.00 </font>",,html-keyboard-response,216,325232,0.0-12.0-2.16,3,1,2023-11-23 18:34:09,eecec3b7625347bf626f9f05527b35f8,96.242.234.213,"Mozilla/5.0 (Macintosh; Intel Mac OS X 10_15_7) AppleWebKit/537.36 (KHTML, like Gecko) Chrome/119.0.0.0 Safari/537.36",Macintosh,Chrome,119.0.0.0,OS X,10_15_7,null,"en-US,en;q=0.9",,null,,,,,,,,,,,,,,,
1296,"<div style=""font-size:120%; top:20%""></div>",,html-keyboard-response,217,326748,0.0-12.0-0.17,3,1,2023-11-23 18:34:09,eecec3b7625347bf626f9f05527b35f8,96.242.234.213,"Mozilla/5.0 (Macintosh; Intel Mac OS X 10_15_7) AppleWebKit/537.36 (KHTML, like Gecko) Chrome/119.0.0.0 Safari/537.36",Macintosh,Chrome,119.0.0.0,OS X,10_15_7,null,"en-US,en;q=0.9",,null,[object Object],,,,,,,,,,,,,,
1296,sound/500,,audio-keyboard-response,218,328125,0.0-12.0-1.17,3,1,2023-11-23 18:34:09,eecec3b7625347bf626f9f05527b35f8,96.242.234.213,"Mozilla/5.0 (Macintosh; Intel Mac OS X 10_15_7) AppleWebKit/537.36 (KHTML, like Gecko) Chrome/119.0.0.0 Safari/537.36",Macintosh,Chrome,119.0.0.0,OS X,10_15_7,null,"en-US,en;q=0.9",,81,,acquisition,anything,neutral,2,300,700,q,500,,,,,,
1296,"<font size=""100%""></font>",,html-keyboard-response,219,329232,0.0-12.0-2.17,3,1,2023-11-23 18:34:09,eecec3b7625347bf626f9f05527b35f8,96.242.234.213,"Mozilla/5.0 (Macintosh; Intel Mac OS X 10_15_7) AppleWebKit/537.36 (KHTML, like Gecko) Chrome/119.0.0.0 Safari/537.36",Macintosh,Chrome,119.0.0.0,OS X,10_15_7,null,"en-US,en;q=0.9",,null,,,,,,,,,,,,,,,
1296,"<div style=""font-size:120%; top:20%""></div>",,html-keyboard-response,220,330748,0.0-12.0-0.18,3,1,2023-11-23 18:34:09,eecec3b7625347bf626f9f05527b35f8,96.242.234.213,"Mozilla/5.0 (Macintosh; Intel Mac OS X 10_15_7) AppleWebKit/537.36 (KHTML, like Gecko) Chrome/119.0.0.0 Safari/537.36",Macintosh,Chrome,119.0.0.0,OS X,10_15_7,null,"en-US,en;q=0.9",,null,[object Object],,,,,,,,,,,,,,
1296,sound/300,,audio-keyboard-response,221,333259,0.0-12.0-1.18,3,1,2023-11-23 18:34:09,eecec3b7625347bf626f9f05527b35f8,96.242.234.213,"Mozilla/5.0 (Macintosh; Intel Mac OS X 10_15_7) AppleWebKit/537.36 (KHTML, like Gecko) Chrome/119.0.0.0 Safari/537.36",Macintosh,Chrome,119.0.0.0,OS X,10_15_7,null,"en-US,en;q=0.9",,null,,acquisition,q,negative,2,300,700,q,300,,,,,,
1296,"<font size=""100%"" weight=bold> - $0.04</font>",,html-keyboard-response,222,334369,0.0-12.0-2.18,3,1,2023-11-23 18:34:09,eecec3b7625347bf626f9f05527b35f8,96.242.234.213,"Mozilla/5.0 (Macintosh; Intel Mac OS X 10_15_7) AppleWebKit/537.36 (KHTML, like Gecko) Chrome/119.0.0.0 Safari/537.36",Macintosh,Chrome,119.0.0.0,OS X,10_15_7,null,"en-US,en;q=0.9",,null,,,,,,,,,,,,,,,
1296,"<div style=""font-size:120%; top:20%""></div>",,html-keyboard-response,223,335890,0.0-12.0-0.19,3,1,2023-11-23 18:34:09,eecec3b7625347bf626f9f05527b35f8,96.242.234.213,"Mozilla/5.0 (Macintosh; Intel Mac OS X 10_15_7) AppleWebKit/537.36 (KHTML, like Gecko) Chrome/119.0.0.0 Safari/537.36",Macintosh,Chrome,119.0.0.0,OS X,10_15_7,null,"en-US,en;q=0.9",,null,[object Object],,,,,,,,,,,,,,
1296,sound/300,,audio-keyboard-response,224,338408,0.0-12.0-1.19,3,1,2023-11-23 18:34:09,eecec3b7625347bf626f9f05527b35f8,96.242.234.213,"Mozilla/5.0 (Macintosh; Intel Mac OS X 10_15_7) AppleWebKit/537.36 (KHTML, like Gecko) Chrome/119.0.0.0 Safari/537.36",Macintosh,Chrome,119.0.0.0,OS X,10_15_7,null,"en-US,en;q=0.9",,80,,acquisition,anything,negative,2,300,700,q,300,FALSE,,,,,
1296,"<font size=""100%"" weight=bold> - $0.04</font>",,html-keyboard-response,225,339523,0.0-12.0-2.19,3,1,2023-11-23 18:34:09,eecec3b7625347bf626f9f05527b35f8,96.242.234.213,"Mozilla/5.0 (Macintosh; Intel Mac OS X 10_15_7) AppleWebKit/537.36 (KHTML, like Gecko) Chrome/119.0.0.0 Safari/537.36",Macintosh,Chrome,119.0.0.0,OS X,10_15_7,null,"en-US,en;q=0.9",,null,,,,,,,,,,,,,,,
1296,"<div style=""font-size:120%; top:20%""></div>",,html-keyboard-response,226,341037,0.0-12.0-0.20,3,1,2023-11-23 18:34:09,eecec3b7625347bf626f9f05527b35f8,96.242.234.213,"Mozilla/5.0 (Macintosh; Intel Mac OS X 10_15_7) AppleWebKit/537.36 (KHTML, like Gecko) Chrome/119.0.0.0 Safari/537.36",Macintosh,Chrome,119.0.0.0,OS X,10_15_7,null,"en-US,en;q=0.9",,null,[object Object],,,,,,,,,,,,,,
1296,sound/500,,audio-keyboard-response,227,342137,0.0-12.0-1.20,3,1,2023-11-23 18:34:09,eecec3b7625347bf626f9f05527b35f8,96.242.234.213,"Mozilla/5.0 (Macintosh; Intel Mac OS X 10_15_7) AppleWebKit/537.36 (KHTML, like Gecko) Chrome/119.0.0.0 Safari/537.36",Macintosh,Chrome,119.0.0.0,OS X,10_15_7,null,"en-US,en;q=0.9",,80,,acquisition,anything,neutral,2,300,700,q,500,,,,,,
1296,"<font size=""100%""></font>",,html-keyboard-response,228,343248,0.0-12.0-2.20,3,1,2023-11-23 18:34:09,eecec3b7625347bf626f9f05527b35f8,96.242.234.213,"Mozilla/5.0 (Macintosh; Intel Mac OS X 10_15_7) AppleWebKit/537.36 (KHTML, like Gecko) Chrome/119.0.0.0 Safari/537.36",Macintosh,Chrome,119.0.0.0,OS X,10_15_7,null,"en-US,en;q=0.9",,null,,,,,,,,,,,,,,,
1296,"<div style=""font-size:120%; top:20%""></div>",,html-keyboard-response,229,344764,0.0-12.0-0.21,3,1,2023-11-23 18:34:09,eecec3b7625347bf626f9f05527b35f8,96.242.234.213,"Mozilla/5.0 (Macintosh; Intel Mac OS X 10_15_7) AppleWebKit/537.36 (KHTML, like Gecko) Chrome/119.0.0.0 Safari/537.36",Macintosh,Chrome,119.0.0.0,OS X,10_15_7,null,"en-US,en;q=0.9",,null,[object Object],,,,,,,,,,,,,,
1296,sound/700,,audio-keyboard-response,230,345532,0.0-12.0-1.21,3,1,2023-11-23 18:34:09,eecec3b7625347bf626f9f05527b35f8,96.242.234.213,"Mozilla/5.0 (Macintosh; Intel Mac OS X 10_15_7) AppleWebKit/537.36 (KHTML, like Gecko) Chrome/119.0.0.0 Safari/537.36",Macintosh,Chrome,119.0.0.0,OS X,10_15_7,null,"en-US,en;q=0.9",,81,,acquisition,p,positive,2,300,700,q,700,,,,,,
1296,"<font size=""100%"" weight=bold> + $0.00 </font>",,html-keyboard-response,231,346641,0.0-12.0-2.21,3,1,2023-11-23 18:34:09,eecec3b7625347bf626f9f05527b35f8,96.242.234.213,"Mozilla/5.0 (Macintosh; Intel Mac OS X 10_15_7) AppleWebKit/537.36 (KHTML, like Gecko) Chrome/119.0.0.0 Safari/537.36",Macintosh,Chrome,119.0.0.0,OS X,10_15_7,null,"en-US,en;q=0.9",,null,,,,,,,,,,,,,,,
1296,The total bonus amount of bonus you earned in this last period was $0.00.<br> Press any key to continue to the next step.,,html-keyboard-response,232,350817,0.0-13.0,3,1,2023-11-23 18:34:09,eecec3b7625347bf626f9f05527b35f8,96.242.234.213,"Mozilla/5.0 (Macintosh; Intel Mac OS X 10_15_7) AppleWebKit/537.36 (KHTML, like Gecko) Chrome/119.0.0.0 Safari/537.36",Macintosh,Chrome,119.0.0.0,OS X,10_15_7,null,"en-US,en;q=0.9",,32,,,,,,,,,,,,,,,
1296,,,instructions,233,361401,0.0-14.0,3,1,2023-11-23 18:34:09,eecec3b7625347bf626f9f05527b35f8,96.242.234.213,"Mozilla/5.0 (Macintosh; Intel Mac OS X 10_15_7) AppleWebKit/537.36 (KHTML, like Gecko) Chrome/119.0.0.0 Safari/537.36",Macintosh,Chrome,119.0.0.0,OS X,10_15_7,null,"en-US,en;q=0.9","[{""page_index"":0,""viewing_time"":10577}]",,,,,,,,,,,,,,,,
1296,,,html-keyboard-response,234,362316,0.0-15.0-0.0,3,1,2023-11-23 18:34:09,eecec3b7625347bf626f9f05527b35f8,96.242.234.213,"Mozilla/5.0 (Macintosh; Intel Mac OS X 10_15_7) AppleWebKit/537.36 (KHTML, like Gecko) Chrome/119.0.0.0 Safari/537.36",Macintosh,Chrome,119.0.0.0,OS X,10_15_7,null,"en-US,en;q=0.9",,null,[object Object],,,,,,,,,,,,,,
1296,sound/305,,audio-keyboard-response,235,363238,0.0-15.0-1.0,3,1,2023-11-23 18:34:09,eecec3b7625347bf626f9f05527b35f8,96.242.234.213,"Mozilla/5.0 (Macintosh; Intel Mac OS X 10_15_7) AppleWebKit/537.36 (KHTML, like Gecko) Chrome/119.0.0.0 Safari/537.36",Macintosh,Chrome,119.0.0.0,OS X,10_15_7,null,"en-US,en;q=0.9",,80,,generalization,space,negative,2,300,700,q,,FALSE,305,5,30,FALSE,
1296,,,html-keyboard-response,236,364246,0.0-15.0-2.0,3,1,2023-11-23 18:34:09,eecec3b7625347bf626f9f05527b35f8,96.242.234.213,"Mozilla/5.0 (Macintosh; Intel Mac OS X 10_15_7) AppleWebKit/537.36 (KHTML, like Gecko) Chrome/119.0.0.0 Safari/537.36",Macintosh,Chrome,119.0.0.0,OS X,10_15_7,null,"en-US,en;q=0.9",,null,,,,,,,,,,,,,,,
1296,,,html-keyboard-response,237,364760,0.0-15.0-0.1,3,1,2023-11-23 18:34:09,eecec3b7625347bf626f9f05527b35f8,96.242.234.213,"Mozilla/5.0 (Macintosh; Intel Mac OS X 10_15_7) AppleWebKit/537.36 (KHTML, like Gecko) Chrome/119.0.0.0 Safari/537.36",Macintosh,Chrome,119.0.0.0,OS X,10_15_7,null,"en-US,en;q=0.9",,null,[object Object],,,,,,,,,,,,,,
1296,sound/700,,audio-keyboard-response,238,365651,0.0-15.0-1.1,3,1,2023-11-23 18:34:09,eecec3b7625347bf626f9f05527b35f8,96.242.234.213,"Mozilla/5.0 (Macintosh; Intel Mac OS X 10_15_7) AppleWebKit/537.36 (KHTML, like Gecko) Chrome/119.0.0.0 Safari/537.36",Macintosh,Chrome,119.0.0.0,OS X,10_15_7,null,"en-US,en;q=0.9",,81,,generalization,p,positive,2,300,700,q,,FALSE,,0,31,FALSE,
1296,,,html-keyboard-response,239,366661,0.0-15.0-2.1,3,1,2023-11-23 18:34:09,eecec3b7625347bf626f9f05527b35f8,96.242.234.213,"Mozilla/5.0 (Macintosh; Intel Mac OS X 10_15_7) AppleWebKit/537.36 (KHTML, like Gecko) Chrome/119.0.0.0 Safari/537.36",Macintosh,Chrome,119.0.0.0,OS X,10_15_7,null,"en-US,en;q=0.9",,null,,,,,,,,,,,,,,,
1296,,,html-keyboard-response,240,367174,0.0-15.0-0.2,3,1,2023-11-23 18:34:09,eecec3b7625347bf626f9f05527b35f8,96.242.234.213,"Mozilla/5.0 (Macintosh; Intel Mac OS X 10_15_7) AppleWebKit/537.36 (KHTML, like Gecko) Chrome/119.0.0.0 Safari/537.36",Macintosh,Chrome,119.0.0.0,OS X,10_15_7,null,"en-US,en;q=0.9",,null,[object Object],,,,,,,,,,,,,,
1296,sound/900,,audio-keyboard-response,241,367270,0.0-15.0-1.2,3,1,2023-11-23 18:34:09,eecec3b7625347bf626f9f05527b35f8,96.242.234.213,"Mozilla/5.0 (Macintosh; Intel Mac OS X 10_15_7) AppleWebKit/537.36 (KHTML, like Gecko) Chrome/119.0.0.0 Safari/537.36",Macintosh,Chrome,119.0.0.0,OS X,10_15_7,null,"en-US,en;q=0.9",,80,,generalization,space,control,2,300,700,q,,FALSE,,NaN,32,,
1296,,,html-keyboard-response,242,368279,0.0-15.0-2.2,3,1,2023-11-23 18:34:09,eecec3b7625347bf626f9f05527b35f8,96.242.234.213,"Mozilla/5.0 (Macintosh; Intel Mac OS X 10_15_7) AppleWebKit/537.36 (KHTML, like Gecko) Chrome/119.0.0.0 Safari/537.36",Macintosh,Chrome,119.0.0.0,OS X,10_15_7,null,"en-US,en;q=0.9",,null,,,,,,,,,,,,,,,
1296,,,html-keyboard-response,243,368788,0.0-15.0-0.3,3,1,2023-11-23 18:34:09,eecec3b7625347bf626f9f05527b35f8,96.242.234.213,"Mozilla/5.0 (Macintosh; Intel Mac OS X 10_15_7) AppleWebKit/537.36 (KHTML, like Gecko) Chrome/119.0.0.0 Safari/537.36",Macintosh,Chrome,119.0.0.0,OS X,10_15_7,null,"en-US,en;q=0.9",,null,[object Object],,,,,,,,,,,,,,
1296,sound/300,,audio-keyboard-response,244,368865,0.0-15.0-1.3,3,1,2023-11-23 18:34:09,eecec3b7625347bf626f9f05527b35f8,96.242.234.213,"Mozilla/5.0 (Macintosh; Intel Mac OS X 10_15_7) AppleWebKit/537.36 (KHTML, like Gecko) Chrome/119.0.0.0 Safari/537.36",Macintosh,Chrome,119.0.0.0,OS X,10_15_7,null,"en-US,en;q=0.9",,80,,generalization,q,negative,2,300,700,q,,FALSE,,0,33,FALSE,
1296,,,html-keyboard-response,245,369876,0.0-15.0-2.3,3,1,2023-11-23 18:34:09,eecec3b7625347bf626f9f05527b35f8,96.242.234.213,"Mozilla/5.0 (Macintosh; Intel Mac OS X 10_15_7) AppleWebKit/537.36 (KHTML, like Gecko) Chrome/119.0.0.0 Safari/537.36",Macintosh,Chrome,119.0.0.0,OS X,10_15_7,null,"en-US,en;q=0.9",,null,,,,,,,,,,,,,,,
1296,,,html-keyboard-response,246,370390,0.0-15.0-0.4,3,1,2023-11-23 18:34:09,eecec3b7625347bf626f9f05527b35f8,96.242.234.213,"Mozilla/5.0 (Macintosh; Intel Mac OS X 10_15_7) AppleWebKit/537.36 (KHTML, like Gecko) Chrome/119.0.0.0 Safari/537.36",Macintosh,Chrome,119.0.0.0,OS X,10_15_7,null,"en-US,en;q=0.9",,null,[object Object],,,,,,,,,,,,,,
1296,sound/295,,audio-keyboard-response,247,370699,0.0-15.0-1.4,3,1,2023-11-23 18:34:09,eecec3b7625347bf626f9f05527b35f8,96.242.234.213,"Mozilla/5.0 (Macintosh; Intel Mac OS X 10_15_7) AppleWebKit/537.36 (KHTML, like Gecko) Chrome/119.0.0.0 Safari/537.36",Macintosh,Chrome,119.0.0.0,OS X,10_15_7,null,"en-US,en;q=0.9",,81,,generalization,space,negative,2,300,700,q,,FALSE,295,-5,34,TRUE,
1296,,,html-keyboard-response,248,371708,0.0-15.0-2.4,3,1,2023-11-23 18:34:09,eecec3b7625347bf626f9f05527b35f8,96.242.234.213,"Mozilla/5.0 (Macintosh; Intel Mac OS X 10_15_7) AppleWebKit/537.36 (KHTML, like Gecko) Chrome/119.0.0.0 Safari/537.36",Macintosh,Chrome,119.0.0.0,OS X,10_15_7,null,"en-US,en;q=0.9",,null,,,,,,,,,,,,,,,
1296,,,html-keyboard-response,249,372216,0.0-15.0-0.5,3,1,2023-11-23 18:34:09,eecec3b7625347bf626f9f05527b35f8,96.242.234.213,"Mozilla/5.0 (Macintosh; Intel Mac OS X 10_15_7) AppleWebKit/537.36 (KHTML, like Gecko) Chrome/119.0.0.0 Safari/537.36",Macintosh,Chrome,119.0.0.0,OS X,10_15_7,null,"en-US,en;q=0.9",,null,[object Object],,,,,,,,,,,,,,
1296,sound/695,,audio-keyboard-response,250,372532,0.0-15.0-1.5,3,1,2023-11-23 18:34:09,eecec3b7625347bf626f9f05527b35f8,96.242.234.213,"Mozilla/5.0 (Macintosh; Intel Mac OS X 10_15_7) AppleWebKit/537.36 (KHTML, like Gecko) Chrome/119.0.0.0 Safari/537.36",Macintosh,Chrome,119.0.0.0,OS X,10_15_7,null,"en-US,en;q=0.9",,80,,generalization,space,positive,2,300,700,q,,FALSE,695,-5,35,TRUE,
1296,,,html-keyboard-response,251,373543,0.0-15.0-2.5,3,1,2023-11-23 18:34:09,eecec3b7625347bf626f9f05527b35f8,96.242.234.213,"Mozilla/5.0 (Macintosh; Intel Mac OS X 10_15_7) AppleWebKit/537.36 (KHTML, like Gecko) Chrome/119.0.0.0 Safari/537.36",Macintosh,Chrome,119.0.0.0,OS X,10_15_7,null,"en-US,en;q=0.9",,null,,,,,,,,,,,,,,,
1296,,,html-keyboard-response,252,374052,0.0-15.0-0.6,3,1,2023-11-23 18:34:09,eecec3b7625347bf626f9f05527b35f8,96.242.234.213,"Mozilla/5.0 (Macintosh; Intel Mac OS X 10_15_7) AppleWebKit/537.36 (KHTML, like Gecko) Chrome/119.0.0.0 Safari/537.36",Macintosh,Chrome,119.0.0.0,OS X,10_15_7,null,"en-US,en;q=0.9",,null,[object Object],,,,,,,,,,,,,,
1296,sound/700,,audio-keyboard-response,253,374836,0.0-15.0-1.6,3,1,2023-11-23 18:34:09,eecec3b7625347bf626f9f05527b35f8,96.242.234.213,"Mozilla/5.0 (Macintosh; Intel Mac OS X 10_15_7) AppleWebKit/537.36 (KHTML, like Gecko) Chrome/119.0.0.0 Safari/537.36",Macintosh,Chrome,119.0.0.0,OS X,10_15_7,null,"en-US,en;q=0.9",,80,,generalization,p,positive,2,300,700,q,,TRUE,,0,36,TRUE,
1296,,,html-keyboard-response,254,375842,0.0-15.0-2.6,3,1,2023-11-23 18:34:09,eecec3b7625347bf626f9f05527b35f8,96.242.234.213,"Mozilla/5.0 (Macintosh; Intel Mac OS X 10_15_7) AppleWebKit/537.36 (KHTML, like Gecko) Chrome/119.0.0.0 Safari/537.36",Macintosh,Chrome,119.0.0.0,OS X,10_15_7,null,"en-US,en;q=0.9",,null,,,,,,,,,,,,,,,
1296,,,html-keyboard-response,255,376347,0.0-15.0-0.7,3,1,2023-11-23 18:34:09,eecec3b7625347bf626f9f05527b35f8,96.242.234.213,"Mozilla/5.0 (Macintosh; Intel Mac OS X 10_15_7) AppleWebKit/537.36 (KHTML, like Gecko) Chrome/119.0.0.0 Safari/537.36",Macintosh,Chrome,119.0.0.0,OS X,10_15_7,null,"en-US,en;q=0.9",,null,[object Object],,,,,,,,,,,,,,
1296,sound/320,,audio-keyboard-response,256,376786,0.0-15.0-1.7,3,1,2023-11-23 18:34:09,eecec3b7625347bf626f9f05527b35f8,96.242.234.213,"Mozilla/5.0 (Macintosh; Intel Mac OS X 10_15_7) AppleWebKit/537.36 (KHTML, like Gecko) Chrome/119.0.0.0 Safari/537.36",Macintosh,Chrome,119.0.0.0,OS X,10_15_7,null,"en-US,en;q=0.9",,81,,generalization,space,negative,2,300,700,q,,FALSE,320,20,37,TRUE,
null,,,html-keyboard-response,257,377793,0.0-15.0-2.7,3,1,2023-11-23 18:34:09,eecec3b7625347bf626f9f05527b35f8,96.242.234.213,"Mozilla/5.0 (Macintosh; Intel Mac OS X 10_15_7) AppleWebKit/537.36 (KHTML, like Gecko) Chrome/119.0.0.0 Safari/537.36",Macintosh,Chrome,119.0.0.0,OS X,10_15_7,null,"en-US,en;q=0.9",,null,,,,,,,,,,,,,,,
null,,,html-keyboard-response,258,378300,0.0-15.0-0.8,3,1,2023-11-23 18:34:09,eecec3b7625347bf626f9f05527b35f8,96.242.234.213,"Mozilla/5.0 (Macintosh; Intel Mac OS X 10_15_7) AppleWebKit/537.36 (KHTML, like Gecko) Chrome/119.0.0.0 Safari/537.36",Macintosh,Chrome,119.0.0.0,OS X,10_15_7,null,"en-US,en;q=0.9",,null,[object Object],,,,,,,,,,,,,,
565,sound/200,,audio-keyboard-response,259,378872,0.0-15.0-1.8,3,1,2023-11-23 18:34:09,eecec3b7625347bf626f9f05527b35f8,96.242.234.213,"Mozilla/5.0 (Macintosh; Intel Mac OS X 10_15_7) AppleWebKit/537.36 (KHTML, like Gecko) Chrome/119.0.0.0 Safari/537.36",Macintosh,Chrome,119.0.0.0,OS X,10_15_7,null,"en-US,en;q=0.9",,80,,generalization,space,negative,2,300,700,q,,FALSE,200,-100,38,FALSE,
565,,,html-keyboard-response,260,379879,0.0-15.0-2.8,3,1,2023-11-23 18:34:09,eecec3b7625347bf626f9f05527b35f8,96.242.234.213,"Mozilla/5.0 (Macintosh; Intel Mac OS X 10_15_7) AppleWebKit/537.36 (KHTML, like Gecko) Chrome/119.0.0.0 Safari/537.36",Macintosh,Chrome,119.0.0.0,OS X,10_15_7,null,"en-US,en;q=0.9",,null,,,,,,,,,,,,,,,
565,,,html-keyboard-response,261,380387,0.0-15.0-0.9,3,1,2023-11-23 18:34:09,eecec3b7625347bf626f9f05527b35f8,96.242.234.213,"Mozilla/5.0 (Macintosh; Intel Mac OS X 10_15_7) AppleWebKit/537.36 (KHTML, like Gecko) Chrome/119.0.0.0 Safari/537.36",Macintosh,Chrome,119.0.0.0,OS X,10_15_7,null,"en-US,en;q=0.9",,null,[object Object],,,,,,,,,,,,,,
565,sound/400,,audio-keyboard-response,262,380837,0.0-15.0-1.9,3,1,2023-11-23 18:34:09,eecec3b7625347bf626f9f05527b35f8,96.242.234.213,"Mozilla/5.0 (Macintosh; Intel Mac OS X 10_15_7) AppleWebKit/537.36 (KHTML, like Gecko) Chrome/119.0.0.0 Safari/537.36",Macintosh,Chrome,119.0.0.0,OS X,10_15_7,null,"en-US,en;q=0.9",,80,,generalization,space,negative,2,300,700,q,,FALSE,400,100,39,FALSE,
565,,,html-keyboard-response,263,381842,0.0-15.0-2.9,3,1,2023-11-23 18:34:09,eecec3b7625347bf626f9f05527b35f8,96.242.234.213,"Mozilla/5.0 (Macintosh; Intel Mac OS X 10_15_7) AppleWebKit/537.36 (KHTML, like Gecko) Chrome/119.0.0.0 Safari/537.36",Macintosh,Chrome,119.0.0.0,OS X,10_15_7,null,"en-US,en;q=0.9",,null,,,,,,,,,,,,,,,
565,,,html-keyboard-response,264,382351,0.0-15.0-0.10,3,1,2023-11-23 18:34:09,eecec3b7625347bf626f9f05527b35f8,96.242.234.213,"Mozilla/5.0 (Macintosh; Intel Mac OS X 10_15_7) AppleWebKit/537.36 (KHTML, like Gecko) Chrome/119.0.0.0 Safari/537.36",Macintosh,Chrome,119.0.0.0,OS X,10_15_7,null,"en-US,en;q=0.9",,null,[object Object],,,,,,,,,,,,,,
565,sound/880,,audio-keyboard-response,265,382692,0.0-15.0-1.10,3,1,2023-11-23 18:34:09,eecec3b7625347bf626f9f05527b35f8,96.242.234.213,"Mozilla/5.0 (Macintosh; Intel Mac OS X 10_15_7) AppleWebKit/537.36 (KHTML, like Gecko) Chrome/119.0.0.0 Safari/537.36",Macintosh,Chrome,119.0.0.0,OS X,10_15_7,null,"en-US,en;q=0.9",,81,,generalization,space,control,2,300,700,q,,FALSE,,NaN,40,,
565,,,html-keyboard-response,266,383698,0.0-15.0-2.10,3,1,2023-11-23 18:34:09,eecec3b7625347bf626f9f05527b35f8,96.242.234.213,"Mozilla/5.0 (Macintosh; Intel Mac OS X 10_15_7) AppleWebKit/537.36 (KHTML, like Gecko) Chrome/119.0.0.0 Safari/537.36",Macintosh,Chrome,119.0.0.0,OS X,10_15_7,null,"en-US,en;q=0.9",,null,,,,,,,,q,,,,,,,
565,,,html-keyboard-response,267,384208,0.0-15.0-0.11,3,1,2023-11-23 18:34:09,eecec3b7625347bf626f9f05527b35f8,96.242.234.213,"Mozilla/5.0 (Macintosh; Intel Mac OS X 10_15_7) AppleWebKit/537.36 (KHTML, like Gecko) Chrome/119.0.0.0 Safari/537.36",Macintosh,Chrome,119.0.0.0,OS X,10_15_7,null,"en-US,en;q=0.9",,null,[object Object],,,,,,,q,,,,,,,
565,sound/480,,audio-keyboard-response,268,384589,0.0-15.0-1.11,3,1,2023-11-23 18:34:09,eecec3b7625347bf626f9f05527b35f8,96.242.234.213,"Mozilla/5.0 (Macintosh; Intel Mac OS X 10_15_7) AppleWebKit/537.36 (KHTML, like Gecko) Chrome/119.0.0.0 Safari/537.36",Macintosh,Chrome,119.0.0.0,OS X,10_15_7,null,"en-US,en;q=0.9",,80,,generalization,space,control,2,300,700,q,,FALSE,,NaN,41,,
565,,,html-keyboard-response,269,385600,0.0-15.0-2.11,3,1,2023-11-23 18:34:09,eecec3b7625347bf626f9f05527b35f8,96.242.234.213,"Mozilla/5.0 (Macintosh; Intel Mac OS X 10_15_7) AppleWebKit/537.36 (KHTML, like Gecko) Chrome/119.0.0.0 Safari/537.36",Macintosh,Chrome,119.0.0.0,OS X,10_15_7,null,"en-US,en;q=0.9",,null,,,,,,,,q,,,,,,,
