"view_history","rt","trial_type","trial_index","time_elapsed","internal_node_id","run_id","condition","recorded_at","source_code_version","ip","user_agent","device","browser","browser_version","platform","platform_version","referer","accept_language","stimulus","key_press","trial_info","stage","correct_response","valence","i_block","negative_tone","positive_tone","positive_key","frequency","correct","distance","i_generalization_trial","tone","valence_match","responses"
"[{""page_index"":0,""viewing_time"":32961},{""page_index"":1,""viewing_time"":830},{""page_index"":2,""viewing_time"":857},{""page_index"":3,""viewing_time"":1916},{""page_index"":4,""viewing_time"":738},{""page_index"":5,""viewing_time"":1232},{""page_index"":6,""viewing_time"":467},{""page_index"":7,""viewing_time"":853},{""page_index"":8,""viewing_time"":686}]","40540","instructions","0","40541","0.0-0.0","3","1","2023-10-30 23:59:53","60d771905d4966a5e69ee61086df4a57","171.66.13.53","Mozilla/5.0 (Macintosh; Intel Mac OS X 10_15_7) AppleWebKit/537.36 (KHTML, like Gecko) Chrome/118.0.0.0 Safari/537.36","Macintosh","Chrome","118.0.0.0","OS X","10_15_7","null","en-US,en;q=0.9","","","","","","","","","","","","","","","","",""
"","null","html-keyboard-response","1","42557","0.0-1.0-0.0","3","1","2023-10-30 23:59:53","60d771905d4966a5e69ee61086df4a57","171.66.13.53","Mozilla/5.0 (Macintosh; Intel Mac OS X 10_15_7) AppleWebKit/537.36 (KHTML, like Gecko) Chrome/118.0.0.0 Safari/537.36","Macintosh","Chrome","118.0.0.0","OS X","10_15_7","null","en-US,en;q=0.9","<div style=""font-size:120%; top:20%""></div>","null","[object Object]","","","","","","","","","","","","","",""
"","821","audio-keyboard-response","2","43431","0.0-1.0-1.0","3","1","2023-10-30 23:59:53","60d771905d4966a5e69ee61086df4a57","171.66.13.53","Mozilla/5.0 (Macintosh; Intel Mac OS X 10_15_7) AppleWebKit/537.36 (KHTML, like Gecko) Chrome/118.0.0.0 Safari/537.36","Macintosh","Chrome","118.0.0.0","OS X","10_15_7","null","en-US,en;q=0.9","sound/500","80","","acquisition","","neutral","0","300","700","q","500","","","","","",""
"","null","html-keyboard-response","3","44539","0.0-1.0-2.0","3","1","2023-10-30 23:59:53","60d771905d4966a5e69ee61086df4a57","171.66.13.53","Mozilla/5.0 (Macintosh; Intel Mac OS X 10_15_7) AppleWebKit/537.36 (KHTML, like Gecko) Chrome/118.0.0.0 Safari/537.36","Macintosh","Chrome","118.0.0.0","OS X","10_15_7","null","en-US,en;q=0.9","<font size=""100%""></font>","null","","","","","","","","","","","","","","",""
"","null","html-keyboard-response","4","46049","0.0-1.0-0.1","3","1","2023-10-30 23:59:53","60d771905d4966a5e69ee61086df4a57","171.66.13.53","Mozilla/5.0 (Macintosh; Intel Mac OS X 10_15_7) AppleWebKit/537.36 (KHTML, like Gecko) Chrome/118.0.0.0 Safari/537.36","Macintosh","Chrome","118.0.0.0","OS X","10_15_7","null","en-US,en;q=0.9","<div style=""font-size:120%; top:20%""></div>","null","[object Object]","","","","","","","","","","","","","",""
"","101","audio-keyboard-response","5","48557","0.0-1.0-1.1","3","1","2023-10-30 23:59:53","60d771905d4966a5e69ee61086df4a57","171.66.13.53","Mozilla/5.0 (Macintosh; Intel Mac OS X 10_15_7) AppleWebKit/537.36 (KHTML, like Gecko) Chrome/118.0.0.0 Safari/537.36","Macintosh","Chrome","118.0.0.0","OS X","10_15_7","null","en-US,en;q=0.9","sound/300","80","","acquisition","","negative","0","300","700","q","300","false","","","","",""
"","null","html-keyboard-response","6","49668","0.0-1.0-2.1","3","1","2023-10-30 23:59:53","60d771905d4966a5e69ee61086df4a57","171.66.13.53","Mozilla/5.0 (Macintosh; Intel Mac OS X 10_15_7) AppleWebKit/537.36 (KHTML, like Gecko) Chrome/118.0.0.0 Safari/537.36","Macintosh","Chrome","118.0.0.0","OS X","10_15_7","null","en-US,en;q=0.9","<font size=""100%"" weight=bold> - $0.04</font>","null","","","","","","","","","","","","","","",""
"","null","html-keyboard-response","7","51180","0.0-1.0-0.2","3","1","2023-10-30 23:59:53","60d771905d4966a5e69ee61086df4a57","171.66.13.53","Mozilla/5.0 (Macintosh; Intel Mac OS X 10_15_7) AppleWebKit/537.36 (KHTML, like Gecko) Chrome/118.0.0.0 Safari/537.36","Macintosh","Chrome","118.0.0.0","OS X","10_15_7","null","en-US,en;q=0.9","<div style=""font-size:120%; top:20%""></div>","null","[object Object]","","","","","","","","","","","","","",""
"","171","audio-keyboard-response","8","53682","0.0-1.0-1.2","3","1","2023-10-30 23:59:53","60d771905d4966a5e69ee61086df4a57","171.66.13.53","Mozilla/5.0 (Macintosh; Intel Mac OS X 10_15_7) AppleWebKit/537.36 (KHTML, like Gecko) Chrome/118.0.0.0 Safari/537.36","Macintosh","Chrome","118.0.0.0","OS X","10_15_7","null","en-US,en;q=0.9","sound/700","80","","acquisition","","positive","0","300","700","q","700","true","","","","",""
"","null","html-keyboard-response","9","54794","0.0-1.0-2.2","3","1","2023-10-30 23:59:53","60d771905d4966a5e69ee61086df4a57","171.66.13.53","Mozilla/5.0 (Macintosh; Intel Mac OS X 10_15_7) AppleWebKit/537.36 (KHTML, like Gecko) Chrome/118.0.0.0 Safari/537.36","Macintosh","Chrome","118.0.0.0","OS X","10_15_7","null","en-US,en;q=0.9","<font size=""100%"" weight=bold> + $0.04</font>","null","","","","","","","","","","","","","","",""
"","null","html-keyboard-response","10","56307","0.0-1.0-0.3","3","1","2023-10-30 23:59:53","60d771905d4966a5e69ee61086df4a57","171.66.13.53","Mozilla/5.0 (Macintosh; Intel Mac OS X 10_15_7) AppleWebKit/537.36 (KHTML, like Gecko) Chrome/118.0.0.0 Safari/537.36","Macintosh","Chrome","118.0.0.0","OS X","10_15_7","null","en-US,en;q=0.9","<div style=""font-size:120%; top:20%""></div>","null","[object Object]","","","","","","","","","","","","","",""
"","939","audio-keyboard-response","11","57243","0.0-1.0-1.3","3","1","2023-10-30 23:59:53","60d771905d4966a5e69ee61086df4a57","171.66.13.53","Mozilla/5.0 (Macintosh; Intel Mac OS X 10_15_7) AppleWebKit/537.36 (KHTML, like Gecko) Chrome/118.0.0.0 Safari/537.36","Macintosh","Chrome","118.0.0.0","OS X","10_15_7","null","en-US,en;q=0.9","sound/700","80","","acquisition","q","positive","0","300","700","q","700","","","","","",""
"","null","html-keyboard-response","12","58350","0.0-1.0-2.3","3","1","2023-10-30 23:59:53","60d771905d4966a5e69ee61086df4a57","171.66.13.53","Mozilla/5.0 (Macintosh; Intel Mac OS X 10_15_7) AppleWebKit/537.36 (KHTML, like Gecko) Chrome/118.0.0.0 Safari/537.36","Macintosh","Chrome","118.0.0.0","OS X","10_15_7","null","en-US,en;q=0.9","<font size=""100%"" weight=bold> + $0.00 </font>","null","","","","","","","","","","","","","","",""
"","null","html-keyboard-response","13","59863","0.0-1.0-0.4","3","1","2023-10-30 23:59:53","60d771905d4966a5e69ee61086df4a57","171.66.13.53","Mozilla/5.0 (Macintosh; Intel Mac OS X 10_15_7) AppleWebKit/537.36 (KHTML, like Gecko) Chrome/118.0.0.0 Safari/537.36","Macintosh","Chrome","118.0.0.0","OS X","10_15_7","null","en-US,en;q=0.9","<div style=""font-size:120%; top:20%""></div>","null","[object Object]","","","","","","","","","","","","","",""
"","null","audio-keyboard-response","14","62371","0.0-1.0-1.4","3","1","2023-10-30 23:59:53","60d771905d4966a5e69ee61086df4a57","171.66.13.53","Mozilla/5.0 (Macintosh; Intel Mac OS X 10_15_7) AppleWebKit/537.36 (KHTML, like Gecko) Chrome/118.0.0.0 Safari/537.36","Macintosh","Chrome","118.0.0.0","OS X","10_15_7","null","en-US,en;q=0.9","sound/300","null","","acquisition","p","negative","0","300","700","q","300","","","","","",""
"","null","html-keyboard-response","15","63481","0.0-1.0-2.4","3","1","2023-10-30 23:59:53","60d771905d4966a5e69ee61086df4a57","171.66.13.53","Mozilla/5.0 (Macintosh; Intel Mac OS X 10_15_7) AppleWebKit/537.36 (KHTML, like Gecko) Chrome/118.0.0.0 Safari/537.36","Macintosh","Chrome","118.0.0.0","OS X","10_15_7","null","en-US,en;q=0.9","<font size=""100%"" weight=bold> - $0.04</font>","null","","","","","","","","","","","","","","",""
"","null","html-keyboard-response","16","64996","0.0-1.0-0.5","3","1","2023-10-30 23:59:53","60d771905d4966a5e69ee61086df4a57","171.66.13.53","Mozilla/5.0 (Macintosh; Intel Mac OS X 10_15_7) AppleWebKit/537.36 (KHTML, like Gecko) Chrome/118.0.0.0 Safari/537.36","Macintosh","Chrome","118.0.0.0","OS X","10_15_7","null","en-US,en;q=0.9","<div style=""font-size:120%; top:20%""></div>","null","[object Object]","","","","","","","","","","","","","",""
"","75","audio-keyboard-response","17","65077","0.0-1.0-1.5","3","1","2023-10-30 23:59:53","60d771905d4966a5e69ee61086df4a57","171.66.13.53","Mozilla/5.0 (Macintosh; Intel Mac OS X 10_15_7) AppleWebKit/537.36 (KHTML, like Gecko) Chrome/118.0.0.0 Safari/537.36","Macintosh","Chrome","118.0.0.0","OS X","10_15_7","null","en-US,en;q=0.9","sound/700","80","","acquisition","q","positive","0","300","700","q","700","","","","","",""
"","null","html-keyboard-response","18","66182","0.0-1.0-2.5","3","1","2023-10-30 23:59:53","60d771905d4966a5e69ee61086df4a57","171.66.13.53","Mozilla/5.0 (Macintosh; Intel Mac OS X 10_15_7) AppleWebKit/537.36 (KHTML, like Gecko) Chrome/118.0.0.0 Safari/537.36","Macintosh","Chrome","118.0.0.0","OS X","10_15_7","null","en-US,en;q=0.9","<font size=""100%"" weight=bold> + $0.00 </font>","null","","","","","","","","","","","","","","",""
"","null","html-keyboard-response","19","67696","0.0-1.0-0.6","3","1","2023-10-30 23:59:53","60d771905d4966a5e69ee61086df4a57","171.66.13.53","Mozilla/5.0 (Macintosh; Intel Mac OS X 10_15_7) AppleWebKit/537.36 (KHTML, like Gecko) Chrome/118.0.0.0 Safari/537.36","Macintosh","Chrome","118.0.0.0","OS X","10_15_7","null","en-US,en;q=0.9","<div style=""font-size:120%; top:20%""></div>","null","[object Object]","","","","","","","","","","","","","",""
"","219","audio-keyboard-response","20","70203","0.0-1.0-1.6","3","1","2023-10-30 23:59:53","60d771905d4966a5e69ee61086df4a57","171.66.13.53","Mozilla/5.0 (Macintosh; Intel Mac OS X 10_15_7) AppleWebKit/537.36 (KHTML, like Gecko) Chrome/118.0.0.0 Safari/537.36","Macintosh","Chrome","118.0.0.0","OS X","10_15_7","null","en-US,en;q=0.9","sound/700","80","","acquisition","","positive","0","300","700","q","700","true","","","","",""
"","null","html-keyboard-response","21","71316","0.0-1.0-2.6","3","1","2023-10-30 23:59:53","60d771905d4966a5e69ee61086df4a57","171.66.13.53","Mozilla/5.0 (Macintosh; Intel Mac OS X 10_15_7) AppleWebKit/537.36 (KHTML, like Gecko) Chrome/118.0.0.0 Safari/537.36","Macintosh","Chrome","118.0.0.0","OS X","10_15_7","null","en-US,en;q=0.9","<font size=""100%"" weight=bold> + $0.04</font>","null","","","","","","","","","","","","","","",""
"","null","html-keyboard-response","22","72825","0.0-1.0-0.7","3","1","2023-10-30 23:59:53","60d771905d4966a5e69ee61086df4a57","171.66.13.53","Mozilla/5.0 (Macintosh; Intel Mac OS X 10_15_7) AppleWebKit/537.36 (KHTML, like Gecko) Chrome/118.0.0.0 Safari/537.36","Macintosh","Chrome","118.0.0.0","OS X","10_15_7","null","en-US,en;q=0.9","<div style=""font-size:120%; top:20%""></div>","null","[object Object]","","","","","","","","","","","","","",""
"","288","audio-keyboard-response","23","75334","0.0-1.0-1.7","3","1","2023-10-30 23:59:53","60d771905d4966a5e69ee61086df4a57","171.66.13.53","Mozilla/5.0 (Macintosh; Intel Mac OS X 10_15_7) AppleWebKit/537.36 (KHTML, like Gecko) Chrome/118.0.0.0 Safari/537.36","Macintosh","Chrome","118.0.0.0","OS X","10_15_7","null","en-US,en;q=0.9","sound/300","80","","acquisition","","negative","0","300","700","q","300","false","","","","",""
"","null","html-keyboard-response","24","76441","0.0-1.0-2.7","3","1","2023-10-30 23:59:53","60d771905d4966a5e69ee61086df4a57","171.66.13.53","Mozilla/5.0 (Macintosh; Intel Mac OS X 10_15_7) AppleWebKit/537.36 (KHTML, like Gecko) Chrome/118.0.0.0 Safari/537.36","Macintosh","Chrome","118.0.0.0","OS X","10_15_7","null","en-US,en;q=0.9","<font size=""100%"" weight=bold> - $0.04</font>","null","","","","","","","","","","","","","","",""
"","null","html-keyboard-response","25","77957","0.0-1.0-0.8","3","1","2023-10-30 23:59:53","60d771905d4966a5e69ee61086df4a57","171.66.13.53","Mozilla/5.0 (Macintosh; Intel Mac OS X 10_15_7) AppleWebKit/537.36 (KHTML, like Gecko) Chrome/118.0.0.0 Safari/537.36","Macintosh","Chrome","118.0.0.0","OS X","10_15_7","null","en-US,en;q=0.9","<div style=""font-size:120%; top:20%""></div>","null","[object Object]","","","","","","","","","","","","","",""
"","933","audio-keyboard-response","26","78896","0.0-1.0-1.8","3","1","2023-10-30 23:59:53","60d771905d4966a5e69ee61086df4a57","171.66.13.53","Mozilla/5.0 (Macintosh; Intel Mac OS X 10_15_7) AppleWebKit/537.36 (KHTML, like Gecko) Chrome/118.0.0.0 Safari/537.36","Macintosh","Chrome","118.0.0.0","OS X","10_15_7","null","en-US,en;q=0.9","sound/500","80","","acquisition","","neutral","0","300","700","q","500","","","","","",""
"","null","html-keyboard-response","27","80009","0.0-1.0-2.8","3","1","2023-10-30 23:59:53","60d771905d4966a5e69ee61086df4a57","171.66.13.53","Mozilla/5.0 (Macintosh; Intel Mac OS X 10_15_7) AppleWebKit/537.36 (KHTML, like Gecko) Chrome/118.0.0.0 Safari/537.36","Macintosh","Chrome","118.0.0.0","OS X","10_15_7","null","en-US,en;q=0.9","<font size=""100%""></font>","null","","","","","","","","","","","","","","",""
"","null","html-keyboard-response","28","81514","0.0-1.0-0.9","3","1","2023-10-30 23:59:53","60d771905d4966a5e69ee61086df4a57","171.66.13.53","Mozilla/5.0 (Macintosh; Intel Mac OS X 10_15_7) AppleWebKit/537.36 (KHTML, like Gecko) Chrome/118.0.0.0 Safari/537.36","Macintosh","Chrome","118.0.0.0","OS X","10_15_7","null","en-US,en;q=0.9","<div style=""font-size:120%; top:20%""></div>","null","[object Object]","","","","","","","","","","","","","",""
"","null","audio-keyboard-response","29","84023","0.0-1.0-1.9","3","1","2023-10-30 23:59:53","60d771905d4966a5e69ee61086df4a57","171.66.13.53","Mozilla/5.0 (Macintosh; Intel Mac OS X 10_15_7) AppleWebKit/537.36 (KHTML, like Gecko) Chrome/118.0.0.0 Safari/537.36","Macintosh","Chrome","118.0.0.0","OS X","10_15_7","null","en-US,en;q=0.9","sound/300","null","","acquisition","p","negative","0","300","700","q","300","","","","","",""
"","null","html-keyboard-response","30","85134","0.0-1.0-2.9","3","1","2023-10-30 23:59:53","60d771905d4966a5e69ee61086df4a57","171.66.13.53","Mozilla/5.0 (Macintosh; Intel Mac OS X 10_15_7) AppleWebKit/537.36 (KHTML, like Gecko) Chrome/118.0.0.0 Safari/537.36","Macintosh","Chrome","118.0.0.0","OS X","10_15_7","null","en-US,en;q=0.9","<font size=""100%"" weight=bold> - $0.04</font>","null","","","","","","","","","","","","","","",""
"","51","html-keyboard-response","31","85697","0.0-2.0","3","1","2023-10-30 23:59:53","60d771905d4966a5e69ee61086df4a57","171.66.13.53","Mozilla/5.0 (Macintosh; Intel Mac OS X 10_15_7) AppleWebKit/537.36 (KHTML, like Gecko) Chrome/118.0.0.0 Safari/537.36","Macintosh","Chrome","118.0.0.0","OS X","10_15_7","null","en-US,en;q=0.9","The total bonus amount of bonus you earned in this last period was $0.00.<br> Press any key to continue to the next step.","80","","","","","","","","","","","","","","",""
"[{""page_index"":0,""viewing_time"":1295},{""page_index"":1,""viewing_time"":1057},{""page_index"":2,""viewing_time"":926},{""page_index"":3,""viewing_time"":1301},{""page_index"":4,""viewing_time"":1014}]","5594","instructions","32","91291","0.0-3.0","3","1","2023-10-30 23:59:53","60d771905d4966a5e69ee61086df4a57","171.66.13.53","Mozilla/5.0 (Macintosh; Intel Mac OS X 10_15_7) AppleWebKit/537.36 (KHTML, like Gecko) Chrome/118.0.0.0 Safari/537.36","Macintosh","Chrome","118.0.0.0","OS X","10_15_7","null","en-US,en;q=0.9","","","","","","","","","","","","","","","","",""
"","null","html-keyboard-response","33","92207","0.0-4.0-0.0","3","1","2023-10-30 23:59:53","60d771905d4966a5e69ee61086df4a57","171.66.13.53","Mozilla/5.0 (Macintosh; Intel Mac OS X 10_15_7) AppleWebKit/537.36 (KHTML, like Gecko) Chrome/118.0.0.0 Safari/537.36","Macintosh","Chrome","118.0.0.0","OS X","10_15_7","null","en-US,en;q=0.9","","null","[object Object]","","","","","","","","","","","","","",""
"","null","audio-keyboard-response","34","94715","0.0-4.0-1.0","3","1","2023-10-30 23:59:53","60d771905d4966a5e69ee61086df4a57","171.66.13.53","Mozilla/5.0 (Macintosh; Intel Mac OS X 10_15_7) AppleWebKit/537.36 (KHTML, like Gecko) Chrome/118.0.0.0 Safari/537.36","Macintosh","Chrome","118.0.0.0","OS X","10_15_7","null","en-US,en;q=0.9","sound/300","null","","generalization","p","negative","0","300","700","q","","false","0","0","","",""
"","null","html-keyboard-response","35","95723","0.0-4.0-2.0","3","1","2023-10-30 23:59:53","60d771905d4966a5e69ee61086df4a57","171.66.13.53","Mozilla/5.0 (Macintosh; Intel Mac OS X 10_15_7) AppleWebKit/537.36 (KHTML, like Gecko) Chrome/118.0.0.0 Safari/537.36","Macintosh","Chrome","118.0.0.0","OS X","10_15_7","null","en-US,en;q=0.9","<p style='font-weight:bold; color: red; font-size=100%'> - $0.40<br>RESPOND FASTER!</p>","null","","","","","","","","","","","","","","",""
"","null","html-keyboard-response","36","96230","0.0-4.0-0.1","3","1","2023-10-30 23:59:53","60d771905d4966a5e69ee61086df4a57","171.66.13.53","Mozilla/5.0 (Macintosh; Intel Mac OS X 10_15_7) AppleWebKit/537.36 (KHTML, like Gecko) Chrome/118.0.0.0 Safari/537.36","Macintosh","Chrome","118.0.0.0","OS X","10_15_7","null","en-US,en;q=0.9","","null","[object Object]","","","","","","","","","","","","","",""
"","197","audio-keyboard-response","37","96437","0.0-4.0-1.1","3","1","2023-10-30 23:59:53","60d771905d4966a5e69ee61086df4a57","171.66.13.53","Mozilla/5.0 (Macintosh; Intel Mac OS X 10_15_7) AppleWebKit/537.36 (KHTML, like Gecko) Chrome/118.0.0.0 Safari/537.36","Macintosh","Chrome","118.0.0.0","OS X","10_15_7","null","en-US,en;q=0.9","sound/800","80","","generalization","space","positive","0","300","700","q","","false","100","1","800","false",""
"","null","html-keyboard-response","38","97447","0.0-4.0-2.1","3","1","2023-10-30 23:59:53","60d771905d4966a5e69ee61086df4a57","171.66.13.53","Mozilla/5.0 (Macintosh; Intel Mac OS X 10_15_7) AppleWebKit/537.36 (KHTML, like Gecko) Chrome/118.0.0.0 Safari/537.36","Macintosh","Chrome","118.0.0.0","OS X","10_15_7","null","en-US,en;q=0.9","","null","","","","","","","","","","","","","","",""
"","null","html-keyboard-response","39","97956","0.0-4.0-0.2","3","1","2023-10-30 23:59:53","60d771905d4966a5e69ee61086df4a57","171.66.13.53","Mozilla/5.0 (Macintosh; Intel Mac OS X 10_15_7) AppleWebKit/537.36 (KHTML, like Gecko) Chrome/118.0.0.0 Safari/537.36","Macintosh","Chrome","118.0.0.0","OS X","10_15_7","null","en-US,en;q=0.9","","null","[object Object]","","","","","","","","","","","","","",""
"","240","audio-keyboard-response","40","98195","0.0-4.0-1.2","3","1","2023-10-30 23:59:53","60d771905d4966a5e69ee61086df4a57","171.66.13.53","Mozilla/5.0 (Macintosh; Intel Mac OS X 10_15_7) AppleWebKit/537.36 (KHTML, like Gecko) Chrome/118.0.0.0 Safari/537.36","Macintosh","Chrome","118.0.0.0","OS X","10_15_7","null","en-US,en;q=0.9","sound/600","80","","generalization","space","positive","0","300","700","q","","false","-100","2","600","false",""
"","null","html-keyboard-response","41","99201","0.0-4.0-2.2","3","1","2023-10-30 23:59:53","60d771905d4966a5e69ee61086df4a57","171.66.13.53","Mozilla/5.0 (Macintosh; Intel Mac OS X 10_15_7) AppleWebKit/537.36 (KHTML, like Gecko) Chrome/118.0.0.0 Safari/537.36","Macintosh","Chrome","118.0.0.0","OS X","10_15_7","null","en-US,en;q=0.9","","null","","","","","","","","","","","","","","",""
"","null","html-keyboard-response","42","99710","0.0-4.0-0.3","3","1","2023-10-30 23:59:53","60d771905d4966a5e69ee61086df4a57","171.66.13.53","Mozilla/5.0 (Macintosh; Intel Mac OS X 10_15_7) AppleWebKit/537.36 (KHTML, like Gecko) Chrome/118.0.0.0 Safari/537.36","Macintosh","Chrome","118.0.0.0","OS X","10_15_7","null","en-US,en;q=0.9","","null","[object Object]","","","","","","","","","","","","","",""
"","155","audio-keyboard-response","43","99865","0.0-4.0-1.3","3","1","2023-10-30 23:59:53","60d771905d4966a5e69ee61086df4a57","171.66.13.53","Mozilla/5.0 (Macintosh; Intel Mac OS X 10_15_7) AppleWebKit/537.36 (KHTML, like Gecko) Chrome/118.0.0.0 Safari/537.36","Macintosh","Chrome","118.0.0.0","OS X","10_15_7","null","en-US,en;q=0.9","sound/200","80","","generalization","space","negative","0","300","700","q","","false","-100","3","200","true",""
"","null","html-keyboard-response","44","100873","0.0-4.0-2.3","3","1","2023-10-30 23:59:53","60d771905d4966a5e69ee61086df4a57","171.66.13.53","Mozilla/5.0 (Macintosh; Intel Mac OS X 10_15_7) AppleWebKit/537.36 (KHTML, like Gecko) Chrome/118.0.0.0 Safari/537.36","Macintosh","Chrome","118.0.0.0","OS X","10_15_7","null","en-US,en;q=0.9","","null","","","","","","","","","","","","","","",""
"","null","html-keyboard-response","45","101379","0.0-4.0-0.4","3","1","2023-10-30 23:59:53","60d771905d4966a5e69ee61086df4a57","171.66.13.53","Mozilla/5.0 (Macintosh; Intel Mac OS X 10_15_7) AppleWebKit/537.36 (KHTML, like Gecko) Chrome/118.0.0.0 Safari/537.36","Macintosh","Chrome","118.0.0.0","OS X","10_15_7","null","en-US,en;q=0.9","","null","[object Object]","","","","","","","","","","","","","",""
"","0","audio-keyboard-response","46","101382","0.0-4.0-1.4","3","1","2023-10-30 23:59:53","60d771905d4966a5e69ee61086df4a57","171.66.13.53","Mozilla/5.0 (Macintosh; Intel Mac OS X 10_15_7) AppleWebKit/537.36 (KHTML, like Gecko) Chrome/118.0.0.0 Safari/537.36","Macintosh","Chrome","118.0.0.0","OS X","10_15_7","null","en-US,en;q=0.9","sound/280","80","","generalization","space","negative","0","300","700","q","","false","-20","4","280","true",""
"","null","html-keyboard-response","47","102388","0.0-4.0-2.4","3","1","2023-10-30 23:59:53","60d771905d4966a5e69ee61086df4a57","171.66.13.53","Mozilla/5.0 (Macintosh; Intel Mac OS X 10_15_7) AppleWebKit/537.36 (KHTML, like Gecko) Chrome/118.0.0.0 Safari/537.36","Macintosh","Chrome","118.0.0.0","OS X","10_15_7","null","en-US,en;q=0.9","","null","","","","","","","","","","","","","","",""
"","null","html-keyboard-response","48","102893","0.0-4.0-0.5","3","1","2023-10-30 23:59:53","60d771905d4966a5e69ee61086df4a57","171.66.13.53","Mozilla/5.0 (Macintosh; Intel Mac OS X 10_15_7) AppleWebKit/537.36 (KHTML, like Gecko) Chrome/118.0.0.0 Safari/537.36","Macintosh","Chrome","118.0.0.0","OS X","10_15_7","null","en-US,en;q=0.9","","null","[object Object]","","","","","","","","","","","","","",""
"","59","audio-keyboard-response","49","102958","0.0-4.0-1.5","3","1","2023-10-30 23:59:53","60d771905d4966a5e69ee61086df4a57","171.66.13.53","Mozilla/5.0 (Macintosh; Intel Mac OS X 10_15_7) AppleWebKit/537.36 (KHTML, like Gecko) Chrome/118.0.0.0 Safari/537.36","Macintosh","Chrome","118.0.0.0","OS X","10_15_7","null","en-US,en;q=0.9","sound/400","80","","generalization","space","negative","0","300","700","q","","false","100","5","400","true",""
"","null","html-keyboard-response","50","103964","0.0-4.0-2.5","3","1","2023-10-30 23:59:53","60d771905d4966a5e69ee61086df4a57","171.66.13.53","Mozilla/5.0 (Macintosh; Intel Mac OS X 10_15_7) AppleWebKit/537.36 (KHTML, like Gecko) Chrome/118.0.0.0 Safari/537.36","Macintosh","Chrome","118.0.0.0","OS X","10_15_7","null","en-US,en;q=0.9","","null","","","","","","","","","","","","","","",""
"","null","html-keyboard-response","51","104472","0.0-4.0-0.6","3","1","2023-10-30 23:59:53","60d771905d4966a5e69ee61086df4a57","171.66.13.53","Mozilla/5.0 (Macintosh; Intel Mac OS X 10_15_7) AppleWebKit/537.36 (KHTML, like Gecko) Chrome/118.0.0.0 Safari/537.36","Macintosh","Chrome","118.0.0.0","OS X","10_15_7","null","en-US,en;q=0.9","","null","[object Object]","","","","","","","","","","","","","",""
"","null","audio-keyboard-response","52","106980","0.0-4.0-1.6","3","1","2023-10-30 23:59:53","60d771905d4966a5e69ee61086df4a57","171.66.13.53","Mozilla/5.0 (Macintosh; Intel Mac OS X 10_15_7) AppleWebKit/537.36 (KHTML, like Gecko) Chrome/118.0.0.0 Safari/537.36","Macintosh","Chrome","118.0.0.0","OS X","10_15_7","null","en-US,en;q=0.9","sound/320","null","","generalization","space","negative","0","300","700","q","","false","20","6","320","",""
"","null","html-keyboard-response","53","107992","0.0-4.0-2.6","3","1","2023-10-30 23:59:53","60d771905d4966a5e69ee61086df4a57","171.66.13.53","Mozilla/5.0 (Macintosh; Intel Mac OS X 10_15_7) AppleWebKit/537.36 (KHTML, like Gecko) Chrome/118.0.0.0 Safari/537.36","Macintosh","Chrome","118.0.0.0","OS X","10_15_7","null","en-US,en;q=0.9","<p style='font-weight:bold; color: red; font-size=100%'> - $0.40<br>RESPOND FASTER!</p>","null","","","","","","","","","","","","","","",""
"","null","html-keyboard-response","54","108498","0.0-4.0-0.7","3","1","2023-10-30 23:59:53","60d771905d4966a5e69ee61086df4a57","171.66.13.53","Mozilla/5.0 (Macintosh; Intel Mac OS X 10_15_7) AppleWebKit/537.36 (KHTML, like Gecko) Chrome/118.0.0.0 Safari/537.36","Macintosh","Chrome","118.0.0.0","OS X","10_15_7","null","en-US,en;q=0.9","","null","[object Object]","","","","","","","","","","","","","",""
"","501","audio-keyboard-response","55","108999","0.0-4.0-1.7","3","1","2023-10-30 23:59:53","60d771905d4966a5e69ee61086df4a57","171.66.13.53","Mozilla/5.0 (Macintosh; Intel Mac OS X 10_15_7) AppleWebKit/537.36 (KHTML, like Gecko) Chrome/118.0.0.0 Safari/537.36","Macintosh","Chrome","118.0.0.0","OS X","10_15_7","null","en-US,en;q=0.9","sound/700","80","","generalization","q","positive","0","300","700","q","","false","0","7","","false",""
"","null","html-keyboard-response","56","110002","0.0-4.0-2.7","3","1","2023-10-30 23:59:53","60d771905d4966a5e69ee61086df4a57","171.66.13.53","Mozilla/5.0 (Macintosh; Intel Mac OS X 10_15_7) AppleWebKit/537.36 (KHTML, like Gecko) Chrome/118.0.0.0 Safari/537.36","Macintosh","Chrome","118.0.0.0","OS X","10_15_7","null","en-US,en;q=0.9","","null","","","","","","","","","","","","","","",""
"","null","html-keyboard-response","57","110513","0.0-4.0-0.8","3","1","2023-10-30 23:59:53","60d771905d4966a5e69ee61086df4a57","171.66.13.53","Mozilla/5.0 (Macintosh; Intel Mac OS X 10_15_7) AppleWebKit/537.36 (KHTML, like Gecko) Chrome/118.0.0.0 Safari/537.36","Macintosh","Chrome","118.0.0.0","OS X","10_15_7","null","en-US,en;q=0.9","","null","[object Object]","","","","","","","","","","","","","",""
"","91","audio-keyboard-response","58","110613","0.0-4.0-1.8","3","1","2023-10-30 23:59:53","60d771905d4966a5e69ee61086df4a57","171.66.13.53","Mozilla/5.0 (Macintosh; Intel Mac OS X 10_15_7) AppleWebKit/537.36 (KHTML, like Gecko) Chrome/118.0.0.0 Safari/537.36","Macintosh","Chrome","118.0.0.0","OS X","10_15_7","null","en-US,en;q=0.9","sound/720","81","","generalization","space","positive","0","300","700","q","","false","20","8","720","true",""
"","null","html-keyboard-response","59","111623","0.0-4.0-2.8","3","1","2023-10-30 23:59:53","60d771905d4966a5e69ee61086df4a57","171.66.13.53","Mozilla/5.0 (Macintosh; Intel Mac OS X 10_15_7) AppleWebKit/537.36 (KHTML, like Gecko) Chrome/118.0.0.0 Safari/537.36","Macintosh","Chrome","118.0.0.0","OS X","10_15_7","null","en-US,en;q=0.9","","null","","","","","","","","","","","","","","",""
"","null","html-keyboard-response","60","112129","0.0-4.0-0.9","3","1","2023-10-30 23:59:53","60d771905d4966a5e69ee61086df4a57","171.66.13.53","Mozilla/5.0 (Macintosh; Intel Mac OS X 10_15_7) AppleWebKit/537.36 (KHTML, like Gecko) Chrome/118.0.0.0 Safari/537.36","Macintosh","Chrome","118.0.0.0","OS X","10_15_7","null","en-US,en;q=0.9","","null","[object Object]","","","","","","","","","","","","","",""
"","null","audio-keyboard-response","61","114635","0.0-4.0-1.9","3","1","2023-10-30 23:59:53","60d771905d4966a5e69ee61086df4a57","171.66.13.53","Mozilla/5.0 (Macintosh; Intel Mac OS X 10_15_7) AppleWebKit/537.36 (KHTML, like Gecko) Chrome/118.0.0.0 Safari/537.36","Macintosh","Chrome","118.0.0.0","OS X","10_15_7","null","en-US,en;q=0.9","sound/680","null","","generalization","space","positive","0","300","700","q","","false","-20","9","680","",""
"","null","html-keyboard-response","62","115642","0.0-4.0-2.9","3","1","2023-10-30 23:59:53","60d771905d4966a5e69ee61086df4a57","171.66.13.53","Mozilla/5.0 (Macintosh; Intel Mac OS X 10_15_7) AppleWebKit/537.36 (KHTML, like Gecko) Chrome/118.0.0.0 Safari/537.36","Macintosh","Chrome","118.0.0.0","OS X","10_15_7","null","en-US,en;q=0.9","<p style='font-weight:bold; color: red; font-size=100%'> - $0.40<br>RESPOND FASTER!</p>","null","","","","","","","","","","","","","","",""
"","2312","html-keyboard-response","63","117959","0.0-5.0","3","1","2023-10-30 23:59:53","60d771905d4966a5e69ee61086df4a57","171.66.13.53","Mozilla/5.0 (Macintosh; Intel Mac OS X 10_15_7) AppleWebKit/537.36 (KHTML, like Gecko) Chrome/118.0.0.0 Safari/537.36","Macintosh","Chrome","118.0.0.0","OS X","10_15_7","null","en-US,en;q=0.9","bonus earned during this period: $0.00<br><br>Press any key to continue.","81","","","","","","","","","","","","","","",""
"[{""page_index"":0,""viewing_time"":10181}]","10181","instructions","64","128141","0.0-6.0","3","1","2023-10-30 23:59:53","60d771905d4966a5e69ee61086df4a57","171.66.13.53","Mozilla/5.0 (Macintosh; Intel Mac OS X 10_15_7) AppleWebKit/537.36 (KHTML, like Gecko) Chrome/118.0.0.0 Safari/537.36","Macintosh","Chrome","118.0.0.0","OS X","10_15_7","null","en-US,en;q=0.9","","","","","","","","","","","","","","","","",""
"","null","html-keyboard-response","65","129557","0.0-7.0-0.0","3","1","2023-10-30 23:59:53","60d771905d4966a5e69ee61086df4a57","171.66.13.53","Mozilla/5.0 (Macintosh; Intel Mac OS X 10_15_7) AppleWebKit/537.36 (KHTML, like Gecko) Chrome/118.0.0.0 Safari/537.36","Macintosh","Chrome","118.0.0.0","OS X","10_15_7","null","en-US,en;q=0.9","<div style=""font-size:120%; top:20%""></div>","null","[object Object]","","","","","","","","","","","","","",""
"","800","audio-keyboard-response","66","130359","0.0-7.0-1.0","3","1","2023-10-30 23:59:53","60d771905d4966a5e69ee61086df4a57","171.66.13.53","Mozilla/5.0 (Macintosh; Intel Mac OS X 10_15_7) AppleWebKit/537.36 (KHTML, like Gecko) Chrome/118.0.0.0 Safari/537.36","Macintosh","Chrome","118.0.0.0","OS X","10_15_7","null","en-US,en;q=0.9","sound/300","81","","acquisition","p","negative","1","300","700","q","300","","","","","",""
"","null","html-keyboard-response","67","131472","0.0-7.0-2.0","3","1","2023-10-30 23:59:53","60d771905d4966a5e69ee61086df4a57","171.66.13.53","Mozilla/5.0 (Macintosh; Intel Mac OS X 10_15_7) AppleWebKit/537.36 (KHTML, like Gecko) Chrome/118.0.0.0 Safari/537.36","Macintosh","Chrome","118.0.0.0","OS X","10_15_7","null","en-US,en;q=0.9","<font size=""100%"" weight=bold> - $0.04</font>","null","","","","","","","","","","","","","","",""
"","null","html-keyboard-response","68","132983","0.0-7.0-0.1","3","1","2023-10-30 23:59:53","60d771905d4966a5e69ee61086df4a57","171.66.13.53","Mozilla/5.0 (Macintosh; Intel Mac OS X 10_15_7) AppleWebKit/537.36 (KHTML, like Gecko) Chrome/118.0.0.0 Safari/537.36","Macintosh","Chrome","118.0.0.0","OS X","10_15_7","null","en-US,en;q=0.9","<div style=""font-size:120%; top:20%""></div>","null","[object Object]","","","","","","","","","","","","","",""
"","37","audio-keyboard-response","69","133026","0.0-7.0-1.1","3","1","2023-10-30 23:59:53","60d771905d4966a5e69ee61086df4a57","171.66.13.53","Mozilla/5.0 (Macintosh; Intel Mac OS X 10_15_7) AppleWebKit/537.36 (KHTML, like Gecko) Chrome/118.0.0.0 Safari/537.36","Macintosh","Chrome","118.0.0.0","OS X","10_15_7","null","en-US,en;q=0.9","sound/700","81","","acquisition","q","positive","1","300","700","q","700","","","","","",""
"","null","html-keyboard-response","70","134134","0.0-7.0-2.1","3","1","2023-10-30 23:59:53","60d771905d4966a5e69ee61086df4a57","171.66.13.53","Mozilla/5.0 (Macintosh; Intel Mac OS X 10_15_7) AppleWebKit/537.36 (KHTML, like Gecko) Chrome/118.0.0.0 Safari/537.36","Macintosh","Chrome","118.0.0.0","OS X","10_15_7","null","en-US,en;q=0.9","<font size=""100%"" weight=bold> + $0.00 </font>","null","","","","","","","","","","","","","","",""
"","null","html-keyboard-response","71","135646","0.0-7.0-0.2","3","1","2023-10-30 23:59:53","60d771905d4966a5e69ee61086df4a57","171.66.13.53","Mozilla/5.0 (Macintosh; Intel Mac OS X 10_15_7) AppleWebKit/537.36 (KHTML, like Gecko) Chrome/118.0.0.0 Safari/537.36","Macintosh","Chrome","118.0.0.0","OS X","10_15_7","null","en-US,en;q=0.9","<div style=""font-size:120%; top:20%""></div>","null","[object Object]","","","","","","","","","","","","","",""
"","437","audio-keyboard-response","72","136090","0.0-7.0-1.2","3","1","2023-10-30 23:59:53","60d771905d4966a5e69ee61086df4a57","171.66.13.53","Mozilla/5.0 (Macintosh; Intel Mac OS X 10_15_7) AppleWebKit/537.36 (KHTML, like Gecko) Chrome/118.0.0.0 Safari/537.36","Macintosh","Chrome","118.0.0.0","OS X","10_15_7","null","en-US,en;q=0.9","sound/500","81","","acquisition","","neutral","1","300","700","q","500","","","","","",""
"","null","html-keyboard-response","73","137199","0.0-7.0-2.2","3","1","2023-10-30 23:59:53","60d771905d4966a5e69ee61086df4a57","171.66.13.53","Mozilla/5.0 (Macintosh; Intel Mac OS X 10_15_7) AppleWebKit/537.36 (KHTML, like Gecko) Chrome/118.0.0.0 Safari/537.36","Macintosh","Chrome","118.0.0.0","OS X","10_15_7","null","en-US,en;q=0.9","<font size=""100%""></font>","null","","","","","","","","","","","","","","",""
"","null","html-keyboard-response","74","138722","0.0-7.0-0.3","3","1","2023-10-30 23:59:53","60d771905d4966a5e69ee61086df4a57","171.66.13.53","Mozilla/5.0 (Macintosh; Intel Mac OS X 10_15_7) AppleWebKit/537.36 (KHTML, like Gecko) Chrome/118.0.0.0 Safari/537.36","Macintosh","Chrome","118.0.0.0","OS X","10_15_7","null","en-US,en;q=0.9","<div style=""font-size:120%; top:20%""></div>","null","[object Object]","","","","","","","","","","","","","",""
"","763","audio-keyboard-response","75","141233","0.0-7.0-1.3","3","1","2023-10-30 23:59:53","60d771905d4966a5e69ee61086df4a57","171.66.13.53","Mozilla/5.0 (Macintosh; Intel Mac OS X 10_15_7) AppleWebKit/537.36 (KHTML, like Gecko) Chrome/118.0.0.0 Safari/537.36","Macintosh","Chrome","118.0.0.0","OS X","10_15_7","null","en-US,en;q=0.9","sound/700","81","","acquisition","","positive","1","300","700","q","700","true","","","","",""
"","null","html-keyboard-response","76","142343","0.0-7.0-2.3","3","1","2023-10-30 23:59:53","60d771905d4966a5e69ee61086df4a57","171.66.13.53","Mozilla/5.0 (Macintosh; Intel Mac OS X 10_15_7) AppleWebKit/537.36 (KHTML, like Gecko) Chrome/118.0.0.0 Safari/537.36","Macintosh","Chrome","118.0.0.0","OS X","10_15_7","null","en-US,en;q=0.9","<font size=""100%"" weight=bold> + $0.04</font>","null","","","","","","","","","","","","","","",""
"","null","html-keyboard-response","77","143857","0.0-7.0-0.4","3","1","2023-10-30 23:59:53","60d771905d4966a5e69ee61086df4a57","171.66.13.53","Mozilla/5.0 (Macintosh; Intel Mac OS X 10_15_7) AppleWebKit/537.36 (KHTML, like Gecko) Chrome/118.0.0.0 Safari/537.36","Macintosh","Chrome","118.0.0.0","OS X","10_15_7","null","en-US,en;q=0.9","<div style=""font-size:120%; top:20%""></div>","null","[object Object]","","","","","","","","","","","","","",""
"","null","audio-keyboard-response","78","146368","0.0-7.0-1.4","3","1","2023-10-30 23:59:53","60d771905d4966a5e69ee61086df4a57","171.66.13.53","Mozilla/5.0 (Macintosh; Intel Mac OS X 10_15_7) AppleWebKit/537.36 (KHTML, like Gecko) Chrome/118.0.0.0 Safari/537.36","Macintosh","Chrome","118.0.0.0","OS X","10_15_7","null","en-US,en;q=0.9","sound/300","null","","acquisition","","negative","1","300","700","q","300","false","","","","",""
"","null","html-keyboard-response","79","147478","0.0-7.0-2.4","3","1","2023-10-30 23:59:53","60d771905d4966a5e69ee61086df4a57","171.66.13.53","Mozilla/5.0 (Macintosh; Intel Mac OS X 10_15_7) AppleWebKit/537.36 (KHTML, like Gecko) Chrome/118.0.0.0 Safari/537.36","Macintosh","Chrome","118.0.0.0","OS X","10_15_7","null","en-US,en;q=0.9","<font size=""100%"" weight=bold> - $0.04</font>","null","","","","","","","","","","","","","","",""
"","null","html-keyboard-response","80","148990","0.0-7.0-0.5","3","1","2023-10-30 23:59:53","60d771905d4966a5e69ee61086df4a57","171.66.13.53","Mozilla/5.0 (Macintosh; Intel Mac OS X 10_15_7) AppleWebKit/537.36 (KHTML, like Gecko) Chrome/118.0.0.0 Safari/537.36","Macintosh","Chrome","118.0.0.0","OS X","10_15_7","null","en-US,en;q=0.9","<div style=""font-size:120%; top:20%""></div>","null","[object Object]","","","","","","","","","","","","","",""
"","277","audio-keyboard-response","81","149275","0.0-7.0-1.5","3","1","2023-10-30 23:59:53","60d771905d4966a5e69ee61086df4a57","171.66.13.53","Mozilla/5.0 (Macintosh; Intel Mac OS X 10_15_7) AppleWebKit/537.36 (KHTML, like Gecko) Chrome/118.0.0.0 Safari/537.36","Macintosh","Chrome","118.0.0.0","OS X","10_15_7","null","en-US,en;q=0.9","sound/300","81","","acquisition","p","negative","1","300","700","q","300","","","","","",""
"","null","html-keyboard-response","82","150384","0.0-7.0-2.5","3","1","2023-10-30 23:59:53","60d771905d4966a5e69ee61086df4a57","171.66.13.53","Mozilla/5.0 (Macintosh; Intel Mac OS X 10_15_7) AppleWebKit/537.36 (KHTML, like Gecko) Chrome/118.0.0.0 Safari/537.36","Macintosh","Chrome","118.0.0.0","OS X","10_15_7","null","en-US,en;q=0.9","<font size=""100%"" weight=bold> - $0.04</font>","null","","","","","","","","","","","","","","",""
"","null","html-keyboard-response","83","151899","0.0-7.0-0.6","3","1","2023-10-30 23:59:53","60d771905d4966a5e69ee61086df4a57","171.66.13.53","Mozilla/5.0 (Macintosh; Intel Mac OS X 10_15_7) AppleWebKit/537.36 (KHTML, like Gecko) Chrome/118.0.0.0 Safari/537.36","Macintosh","Chrome","118.0.0.0","OS X","10_15_7","null","en-US,en;q=0.9","<div style=""font-size:120%; top:20%""></div>","null","[object Object]","","","","","","","","","","","","","",""
"","1200","audio-keyboard-response","84","153103","0.0-7.0-1.6","3","1","2023-10-30 23:59:53","60d771905d4966a5e69ee61086df4a57","171.66.13.53","Mozilla/5.0 (Macintosh; Intel Mac OS X 10_15_7) AppleWebKit/537.36 (KHTML, like Gecko) Chrome/118.0.0.0 Safari/537.36","Macintosh","Chrome","118.0.0.0","OS X","10_15_7","null","en-US,en;q=0.9","sound/500","81","","acquisition","","neutral","1","300","700","q","500","","","","","",""
"","null","html-keyboard-response","85","154208","0.0-7.0-2.6","3","1","2023-10-30 23:59:53","60d771905d4966a5e69ee61086df4a57","171.66.13.53","Mozilla/5.0 (Macintosh; Intel Mac OS X 10_15_7) AppleWebKit/537.36 (KHTML, like Gecko) Chrome/118.0.0.0 Safari/537.36","Macintosh","Chrome","118.0.0.0","OS X","10_15_7","null","en-US,en;q=0.9","<font size=""100%""></font>","null","","","","","","","","","","","","","","",""
"","null","html-keyboard-response","86","155724","0.0-7.0-0.7","3","1","2023-10-30 23:59:53","60d771905d4966a5e69ee61086df4a57","171.66.13.53","Mozilla/5.0 (Macintosh; Intel Mac OS X 10_15_7) AppleWebKit/537.36 (KHTML, like Gecko) Chrome/118.0.0.0 Safari/537.36","Macintosh","Chrome","118.0.0.0","OS X","10_15_7","null","en-US,en;q=0.9","<div style=""font-size:120%; top:20%""></div>","null","[object Object]","","","","","","","","","","","","","",""
"","null","audio-keyboard-response","87","158230","0.0-7.0-1.7","3","1","2023-10-30 23:59:53","60d771905d4966a5e69ee61086df4a57","171.66.13.53","Mozilla/5.0 (Macintosh; Intel Mac OS X 10_15_7) AppleWebKit/537.36 (KHTML, like Gecko) Chrome/118.0.0.0 Safari/537.36","Macintosh","Chrome","118.0.0.0","OS X","10_15_7","null","en-US,en;q=0.9","sound/700","null","","acquisition","q","positive","1","300","700","q","700","","","","","",""
"","null","html-keyboard-response","88","159344","0.0-7.0-2.7","3","1","2023-10-30 23:59:53","60d771905d4966a5e69ee61086df4a57","171.66.13.53","Mozilla/5.0 (Macintosh; Intel Mac OS X 10_15_7) AppleWebKit/537.36 (KHTML, like Gecko) Chrome/118.0.0.0 Safari/537.36","Macintosh","Chrome","118.0.0.0","OS X","10_15_7","null","en-US,en;q=0.9","<font size=""100%"" weight=bold> + $0.00 </font>","null","","","","","","","","","","","","","","",""
"","null","html-keyboard-response","89","160856","0.0-7.0-0.8","3","1","2023-10-30 23:59:53","60d771905d4966a5e69ee61086df4a57","171.66.13.53","Mozilla/5.0 (Macintosh; Intel Mac OS X 10_15_7) AppleWebKit/537.36 (KHTML, like Gecko) Chrome/118.0.0.0 Safari/537.36","Macintosh","Chrome","118.0.0.0","OS X","10_15_7","null","en-US,en;q=0.9","<div style=""font-size:120%; top:20%""></div>","null","[object Object]","","","","","","","","","","","","","",""
"","347","audio-keyboard-response","90","163360","0.0-7.0-1.8","3","1","2023-10-30 23:59:53","60d771905d4966a5e69ee61086df4a57","171.66.13.53","Mozilla/5.0 (Macintosh; Intel Mac OS X 10_15_7) AppleWebKit/537.36 (KHTML, like Gecko) Chrome/118.0.0.0 Safari/537.36","Macintosh","Chrome","118.0.0.0","OS X","10_15_7","null","en-US,en;q=0.9","sound/300","80","","acquisition","","negative","1","300","700","q","300","false","","","","",""
"","null","html-keyboard-response","91","164474","0.0-7.0-2.8","3","1","2023-10-30 23:59:53","60d771905d4966a5e69ee61086df4a57","171.66.13.53","Mozilla/5.0 (Macintosh; Intel Mac OS X 10_15_7) AppleWebKit/537.36 (KHTML, like Gecko) Chrome/118.0.0.0 Safari/537.36","Macintosh","Chrome","118.0.0.0","OS X","10_15_7","null","en-US,en;q=0.9","<font size=""100%"" weight=bold> - $0.04</font>","null","","","","","","","","","","","","","","",""
"","null","html-keyboard-response","92","165989","0.0-7.0-0.9","3","1","2023-10-30 23:59:53","60d771905d4966a5e69ee61086df4a57","171.66.13.53","Mozilla/5.0 (Macintosh; Intel Mac OS X 10_15_7) AppleWebKit/537.36 (KHTML, like Gecko) Chrome/118.0.0.0 Safari/537.36","Macintosh","Chrome","118.0.0.0","OS X","10_15_7","null","en-US,en;q=0.9","<div style=""font-size:120%; top:20%""></div>","null","[object Object]","","","","","","","","","","","","","",""
"","null","audio-keyboard-response","93","168497","0.0-7.0-1.9","3","1","2023-10-30 23:59:53","60d771905d4966a5e69ee61086df4a57","171.66.13.53","Mozilla/5.0 (Macintosh; Intel Mac OS X 10_15_7) AppleWebKit/537.36 (KHTML, like Gecko) Chrome/118.0.0.0 Safari/537.36","Macintosh","Chrome","118.0.0.0","OS X","10_15_7","null","en-US,en;q=0.9","sound/700","null","","acquisition","","positive","1","300","700","q","700","true","","","","",""
"","null","html-keyboard-response","94","169607","0.0-7.0-2.9","3","1","2023-10-30 23:59:53","60d771905d4966a5e69ee61086df4a57","171.66.13.53","Mozilla/5.0 (Macintosh; Intel Mac OS X 10_15_7) AppleWebKit/537.36 (KHTML, like Gecko) Chrome/118.0.0.0 Safari/537.36","Macintosh","Chrome","118.0.0.0","OS X","10_15_7","null","en-US,en;q=0.9","<font size=""100%"" weight=bold> + $0.04</font>","null","","","","","","","","","","","","","","",""
"","3662","html-keyboard-response","95","173777","0.0-8.0","3","1","2023-10-30 23:59:53","60d771905d4966a5e69ee61086df4a57","171.66.13.53","Mozilla/5.0 (Macintosh; Intel Mac OS X 10_15_7) AppleWebKit/537.36 (KHTML, like Gecko) Chrome/118.0.0.0 Safari/537.36","Macintosh","Chrome","118.0.0.0","OS X","10_15_7","null","en-US,en;q=0.9","The total bonus amount of bonus you earned in this last period was $0.00.<br> Press any key to continue to the next step.","77","","","","","","","","","","","","","","",""
"[{""page_index"":0,""viewing_time"":1095}]","1095","instructions","96","174874","0.0-9.0","3","1","2023-10-30 23:59:53","60d771905d4966a5e69ee61086df4a57","171.66.13.53","Mozilla/5.0 (Macintosh; Intel Mac OS X 10_15_7) AppleWebKit/537.36 (KHTML, like Gecko) Chrome/118.0.0.0 Safari/537.36","Macintosh","Chrome","118.0.0.0","OS X","10_15_7","null","en-US,en;q=0.9","","","","","","","","","","","","","","","","",""
"","null","html-keyboard-response","97","175784","0.0-10.0-0.0","3","1","2023-10-30 23:59:53","60d771905d4966a5e69ee61086df4a57","171.66.13.53","Mozilla/5.0 (Macintosh; Intel Mac OS X 10_15_7) AppleWebKit/537.36 (KHTML, like Gecko) Chrome/118.0.0.0 Safari/537.36","Macintosh","Chrome","118.0.0.0","OS X","10_15_7","null","en-US,en;q=0.9","","null","[object Object]","","","","","","","","","","","","","",""
"","null","audio-keyboard-response","98","178300","0.0-10.0-1.0","3","1","2023-10-30 23:59:53","60d771905d4966a5e69ee61086df4a57","171.66.13.53","Mozilla/5.0 (Macintosh; Intel Mac OS X 10_15_7) AppleWebKit/537.36 (KHTML, like Gecko) Chrome/118.0.0.0 Safari/537.36","Macintosh","Chrome","118.0.0.0","OS X","10_15_7","null","en-US,en;q=0.9","sound/720","null","","generalization","space","positive","1","300","700","q","","false","20","10","720","",""
"","null","html-keyboard-response","99","179306","0.0-10.0-2.0","3","1","2023-10-30 23:59:53","60d771905d4966a5e69ee61086df4a57","171.66.13.53","Mozilla/5.0 (Macintosh; Intel Mac OS X 10_15_7) AppleWebKit/537.36 (KHTML, like Gecko) Chrome/118.0.0.0 Safari/537.36","Macintosh","Chrome","118.0.0.0","OS X","10_15_7","null","en-US,en;q=0.9","<p style='font-weight:bold; color: red; font-size=100%'> - $0.40<br>RESPOND FASTER!</p>","null","","","","","","","","","","","","","","",""
"","null","html-keyboard-response","100","179813","0.0-10.0-0.1","3","1","2023-10-30 23:59:53","60d771905d4966a5e69ee61086df4a57","171.66.13.53","Mozilla/5.0 (Macintosh; Intel Mac OS X 10_15_7) AppleWebKit/537.36 (KHTML, like Gecko) Chrome/118.0.0.0 Safari/537.36","Macintosh","Chrome","118.0.0.0","OS X","10_15_7","null","en-US,en;q=0.9","","null","[object Object]","","","","","","","","","","","","","",""
"","869","audio-keyboard-response","101","180686","0.0-10.0-1.1","3","1","2023-10-30 23:59:53","60d771905d4966a5e69ee61086df4a57","171.66.13.53","Mozilla/5.0 (Macintosh; Intel Mac OS X 10_15_7) AppleWebKit/537.36 (KHTML, like Gecko) Chrome/118.0.0.0 Safari/537.36","Macintosh","Chrome","118.0.0.0","OS X","10_15_7","null","en-US,en;q=0.9","sound/200","80","","generalization","space","negative","1","300","700","q","","false","-100","11","200","true",""
"","null","html-keyboard-response","102","181694","0.0-10.0-2.1","3","1","2023-10-30 23:59:53","60d771905d4966a5e69ee61086df4a57","171.66.13.53","Mozilla/5.0 (Macintosh; Intel Mac OS X 10_15_7) AppleWebKit/537.36 (KHTML, like Gecko) Chrome/118.0.0.0 Safari/537.36","Macintosh","Chrome","118.0.0.0","OS X","10_15_7","null","en-US,en;q=0.9","","null","","","","","","","","","","","","","","",""
"","null","html-keyboard-response","103","182199","0.0-10.0-0.2","3","1","2023-10-30 23:59:53","60d771905d4966a5e69ee61086df4a57","171.66.13.53","Mozilla/5.0 (Macintosh; Intel Mac OS X 10_15_7) AppleWebKit/537.36 (KHTML, like Gecko) Chrome/118.0.0.0 Safari/537.36","Macintosh","Chrome","118.0.0.0","OS X","10_15_7","null","en-US,en;q=0.9","","null","[object Object]","","","","","","","","","","","","","",""
"","133","audio-keyboard-response","104","182342","0.0-10.0-1.2","3","1","2023-10-30 23:59:53","60d771905d4966a5e69ee61086df4a57","171.66.13.53","Mozilla/5.0 (Macintosh; Intel Mac OS X 10_15_7) AppleWebKit/537.36 (KHTML, like Gecko) Chrome/118.0.0.0 Safari/537.36","Macintosh","Chrome","118.0.0.0","OS X","10_15_7","null","en-US,en;q=0.9","sound/280","80","","generalization","space","negative","1","300","700","q","","false","-20","12","280","true",""
"","null","html-keyboard-response","105","183351","0.0-10.0-2.2","3","1","2023-10-30 23:59:53","60d771905d4966a5e69ee61086df4a57","171.66.13.53","Mozilla/5.0 (Macintosh; Intel Mac OS X 10_15_7) AppleWebKit/537.36 (KHTML, like Gecko) Chrome/118.0.0.0 Safari/537.36","Macintosh","Chrome","118.0.0.0","OS X","10_15_7","null","en-US,en;q=0.9","","null","","","","","","","","","","","","","","",""
"","null","html-keyboard-response","106","183864","0.0-10.0-0.3","3","1","2023-10-30 23:59:53","60d771905d4966a5e69ee61086df4a57","171.66.13.53","Mozilla/5.0 (Macintosh; Intel Mac OS X 10_15_7) AppleWebKit/537.36 (KHTML, like Gecko) Chrome/118.0.0.0 Safari/537.36","Macintosh","Chrome","118.0.0.0","OS X","10_15_7","null","en-US,en;q=0.9","","null","[object Object]","","","","","","","","","","","","","",""
"","549","audio-keyboard-response","107","184418","0.0-10.0-1.3","3","1","2023-10-30 23:59:53","60d771905d4966a5e69ee61086df4a57","171.66.13.53","Mozilla/5.0 (Macintosh; Intel Mac OS X 10_15_7) AppleWebKit/537.36 (KHTML, like Gecko) Chrome/118.0.0.0 Safari/537.36","Macintosh","Chrome","118.0.0.0","OS X","10_15_7","null","en-US,en;q=0.9","sound/700","80","","generalization","q","positive","1","300","700","q","","false","0","13","","false",""
"","null","html-keyboard-response","108","185425","0.0-10.0-2.3","3","1","2023-10-30 23:59:53","60d771905d4966a5e69ee61086df4a57","171.66.13.53","Mozilla/5.0 (Macintosh; Intel Mac OS X 10_15_7) AppleWebKit/537.36 (KHTML, like Gecko) Chrome/118.0.0.0 Safari/537.36","Macintosh","Chrome","118.0.0.0","OS X","10_15_7","null","en-US,en;q=0.9","","null","","","","","","","","","","","","","","",""
"","null","html-keyboard-response","109","185935","0.0-10.0-0.4","3","1","2023-10-30 23:59:53","60d771905d4966a5e69ee61086df4a57","171.66.13.53","Mozilla/5.0 (Macintosh; Intel Mac OS X 10_15_7) AppleWebKit/537.36 (KHTML, like Gecko) Chrome/118.0.0.0 Safari/537.36","Macintosh","Chrome","118.0.0.0","OS X","10_15_7","null","en-US,en;q=0.9","","null","[object Object]","","","","","","","","","","","","","",""
"","85","audio-keyboard-response","110","186028","0.0-10.0-1.4","3","1","2023-10-30 23:59:53","60d771905d4966a5e69ee61086df4a57","171.66.13.53","Mozilla/5.0 (Macintosh; Intel Mac OS X 10_15_7) AppleWebKit/537.36 (KHTML, like Gecko) Chrome/118.0.0.0 Safari/537.36","Macintosh","Chrome","118.0.0.0","OS X","10_15_7","null","en-US,en;q=0.9","sound/320","80","","generalization","space","negative","1","300","700","q","","false","20","14","320","true",""
"","null","html-keyboard-response","111","187032","0.0-10.0-2.4","3","1","2023-10-30 23:59:53","60d771905d4966a5e69ee61086df4a57","171.66.13.53","Mozilla/5.0 (Macintosh; Intel Mac OS X 10_15_7) AppleWebKit/537.36 (KHTML, like Gecko) Chrome/118.0.0.0 Safari/537.36","Macintosh","Chrome","118.0.0.0","OS X","10_15_7","null","en-US,en;q=0.9","","null","","","","","","","","","","","","","","",""
"","null","html-keyboard-response","112","187539","0.0-10.0-0.5","3","1","2023-10-30 23:59:53","60d771905d4966a5e69ee61086df4a57","171.66.13.53","Mozilla/5.0 (Macintosh; Intel Mac OS X 10_15_7) AppleWebKit/537.36 (KHTML, like Gecko) Chrome/118.0.0.0 Safari/537.36","Macintosh","Chrome","118.0.0.0","OS X","10_15_7","null","en-US,en;q=0.9","","null","[object Object]","","","","","","","","","","","","","",""
"","48","audio-keyboard-response","113","187594","0.0-10.0-1.5","3","1","2023-10-30 23:59:53","60d771905d4966a5e69ee61086df4a57","171.66.13.53","Mozilla/5.0 (Macintosh; Intel Mac OS X 10_15_7) AppleWebKit/537.36 (KHTML, like Gecko) Chrome/118.0.0.0 Safari/537.36","Macintosh","Chrome","118.0.0.0","OS X","10_15_7","null","en-US,en;q=0.9","sound/600","80","","generalization","space","positive","1","300","700","q","","false","-100","15","600","false",""
"","null","html-keyboard-response","114","188608","0.0-10.0-2.5","3","1","2023-10-30 23:59:53","60d771905d4966a5e69ee61086df4a57","171.66.13.53","Mozilla/5.0 (Macintosh; Intel Mac OS X 10_15_7) AppleWebKit/537.36 (KHTML, like Gecko) Chrome/118.0.0.0 Safari/537.36","Macintosh","Chrome","118.0.0.0","OS X","10_15_7","null","en-US,en;q=0.9","","null","","","","","","","","","","","","","","",""
"","null","html-keyboard-response","115","189117","0.0-10.0-0.6","3","1","2023-10-30 23:59:53","60d771905d4966a5e69ee61086df4a57","171.66.13.53","Mozilla/5.0 (Macintosh; Intel Mac OS X 10_15_7) AppleWebKit/537.36 (KHTML, like Gecko) Chrome/118.0.0.0 Safari/537.36","Macintosh","Chrome","118.0.0.0","OS X","10_15_7","null","en-US,en;q=0.9","","null","[object Object]","","","","","","","","","","","","","",""
"","1077","audio-keyboard-response","116","190197","0.0-10.0-1.6","3","1","2023-10-30 23:59:53","60d771905d4966a5e69ee61086df4a57","171.66.13.53","Mozilla/5.0 (Macintosh; Intel Mac OS X 10_15_7) AppleWebKit/537.36 (KHTML, like Gecko) Chrome/118.0.0.0 Safari/537.36","Macintosh","Chrome","118.0.0.0","OS X","10_15_7","null","en-US,en;q=0.9","sound/800","80","","generalization","space","positive","1","300","700","q","","false","100","16","800","false",""
"","null","html-keyboard-response","117","191206","0.0-10.0-2.6","3","1","2023-10-30 23:59:53","60d771905d4966a5e69ee61086df4a57","171.66.13.53","Mozilla/5.0 (Macintosh; Intel Mac OS X 10_15_7) AppleWebKit/537.36 (KHTML, like Gecko) Chrome/118.0.0.0 Safari/537.36","Macintosh","Chrome","118.0.0.0","OS X","10_15_7","null","en-US,en;q=0.9","","null","","","","","","","","","","","","","","",""
"","null","html-keyboard-response","118","191714","0.0-10.0-0.7","3","1","2023-10-30 23:59:53","60d771905d4966a5e69ee61086df4a57","171.66.13.53","Mozilla/5.0 (Macintosh; Intel Mac OS X 10_15_7) AppleWebKit/537.36 (KHTML, like Gecko) Chrome/118.0.0.0 Safari/537.36","Macintosh","Chrome","118.0.0.0","OS X","10_15_7","null","en-US,en;q=0.9","","null","[object Object]","","","","","","","","","","","","","",""
"","203","audio-keyboard-response","119","191924","0.0-10.0-1.7","3","1","2023-10-30 23:59:53","60d771905d4966a5e69ee61086df4a57","171.66.13.53","Mozilla/5.0 (Macintosh; Intel Mac OS X 10_15_7) AppleWebKit/537.36 (KHTML, like Gecko) Chrome/118.0.0.0 Safari/537.36","Macintosh","Chrome","118.0.0.0","OS X","10_15_7","null","en-US,en;q=0.9","sound/680","80","","generalization","space","positive","1","300","700","q","","false","-20","17","680","false",""
"","null","html-keyboard-response","120","192931","0.0-10.0-2.7","3","1","2023-10-30 23:59:53","60d771905d4966a5e69ee61086df4a57","171.66.13.53","Mozilla/5.0 (Macintosh; Intel Mac OS X 10_15_7) AppleWebKit/537.36 (KHTML, like Gecko) Chrome/118.0.0.0 Safari/537.36","Macintosh","Chrome","118.0.0.0","OS X","10_15_7","null","en-US,en;q=0.9","","null","","","","","","","","","","","","","","",""
"","null","html-keyboard-response","121","193444","0.0-10.0-0.8","3","1","2023-10-30 23:59:53","60d771905d4966a5e69ee61086df4a57","171.66.13.53","Mozilla/5.0 (Macintosh; Intel Mac OS X 10_15_7) AppleWebKit/537.36 (KHTML, like Gecko) Chrome/118.0.0.0 Safari/537.36","Macintosh","Chrome","118.0.0.0","OS X","10_15_7","null","en-US,en;q=0.9","","null","[object Object]","","","","","","","","","","","","","",""
"","395","audio-keyboard-response","122","193846","0.0-10.0-1.8","3","1","2023-10-30 23:59:53","60d771905d4966a5e69ee61086df4a57","171.66.13.53","Mozilla/5.0 (Macintosh; Intel Mac OS X 10_15_7) AppleWebKit/537.36 (KHTML, like Gecko) Chrome/118.0.0.0 Safari/537.36","Macintosh","Chrome","118.0.0.0","OS X","10_15_7","null","en-US,en;q=0.9","sound/300","80","","generalization","p","negative","1","300","700","q","","true","0","18","","true",""
"","null","html-keyboard-response","123","194854","0.0-10.0-2.8","3","1","2023-10-30 23:59:53","60d771905d4966a5e69ee61086df4a57","171.66.13.53","Mozilla/5.0 (Macintosh; Intel Mac OS X 10_15_7) AppleWebKit/537.36 (KHTML, like Gecko) Chrome/118.0.0.0 Safari/537.36","Macintosh","Chrome","118.0.0.0","OS X","10_15_7","null","en-US,en;q=0.9","","null","","","","","","","","","","","","","","",""
"","null","html-keyboard-response","124","195360","0.0-10.0-0.9","3","1","2023-10-30 23:59:53","60d771905d4966a5e69ee61086df4a57","171.66.13.53","Mozilla/5.0 (Macintosh; Intel Mac OS X 10_15_7) AppleWebKit/537.36 (KHTML, like Gecko) Chrome/118.0.0.0 Safari/537.36","Macintosh","Chrome","118.0.0.0","OS X","10_15_7","null","en-US,en;q=0.9","","null","[object Object]","","","","","","","","","","","","","",""
"","235","audio-keyboard-response","125","195596","0.0-10.0-1.9","3","1","2023-10-30 23:59:53","60d771905d4966a5e69ee61086df4a57","171.66.13.53","Mozilla/5.0 (Macintosh; Intel Mac OS X 10_15_7) AppleWebKit/537.36 (KHTML, like Gecko) Chrome/118.0.0.0 Safari/537.36","Macintosh","Chrome","118.0.0.0","OS X","10_15_7","null","en-US,en;q=0.9","sound/400","80","","generalization","space","negative","1","300","700","q","","false","100","19","400","true",""
"","null","html-keyboard-response","126","196604","0.0-10.0-2.9","3","1","2023-10-30 23:59:53","60d771905d4966a5e69ee61086df4a57","171.66.13.53","Mozilla/5.0 (Macintosh; Intel Mac OS X 10_15_7) AppleWebKit/537.36 (KHTML, like Gecko) Chrome/118.0.0.0 Safari/537.36","Macintosh","Chrome","118.0.0.0","OS X","10_15_7","null","en-US,en;q=0.9","","null","","","","","","","","","","","","","","",""
"","923","html-keyboard-response","127","197538","0.0-11.0","3","1","2023-10-30 23:59:53","60d771905d4966a5e69ee61086df4a57","171.66.13.53","Mozilla/5.0 (Macintosh; Intel Mac OS X 10_15_7) AppleWebKit/537.36 (KHTML, like Gecko) Chrome/118.0.0.0 Safari/537.36","Macintosh","Chrome","118.0.0.0","OS X","10_15_7","null","en-US,en;q=0.9","bonus earned during this period: $0.04<br><br>Press any key to continue.","80","","","","","","","","","","","","","","",""
"[{""page_index"":0,""viewing_time"":2548}]","2549","instructions","128","200090","0.0-12.0","3","1","2023-10-30 23:59:53","60d771905d4966a5e69ee61086df4a57","171.66.13.53","Mozilla/5.0 (Macintosh; Intel Mac OS X 10_15_7) AppleWebKit/537.36 (KHTML, like Gecko) Chrome/118.0.0.0 Safari/537.36","Macintosh","Chrome","118.0.0.0","OS X","10_15_7","null","en-US,en;q=0.9","","","","","","","","","","","","","","","","",""
"","null","html-keyboard-response","129","201504","0.0-13.0-0.0","3","1","2023-10-30 23:59:53","60d771905d4966a5e69ee61086df4a57","171.66.13.53","Mozilla/5.0 (Macintosh; Intel Mac OS X 10_15_7) AppleWebKit/537.36 (KHTML, like Gecko) Chrome/118.0.0.0 Safari/537.36","Macintosh","Chrome","118.0.0.0","OS X","10_15_7","null","en-US,en;q=0.9","<div style=""font-size:120%; top:20%""></div>","null","[object Object]","","","","","","","","","","","","","",""
"","811","audio-keyboard-response","130","204016","0.0-13.0-1.0","3","1","2023-10-30 23:59:53","60d771905d4966a5e69ee61086df4a57","171.66.13.53","Mozilla/5.0 (Macintosh; Intel Mac OS X 10_15_7) AppleWebKit/537.36 (KHTML, like Gecko) Chrome/118.0.0.0 Safari/537.36","Macintosh","Chrome","118.0.0.0","OS X","10_15_7","null","en-US,en;q=0.9","sound/700","80","","acquisition","","positive","2","300","700","q","700","true","","","","",""
"","null","html-keyboard-response","131","205123","0.0-13.0-2.0","3","1","2023-10-30 23:59:53","60d771905d4966a5e69ee61086df4a57","171.66.13.53","Mozilla/5.0 (Macintosh; Intel Mac OS X 10_15_7) AppleWebKit/537.36 (KHTML, like Gecko) Chrome/118.0.0.0 Safari/537.36","Macintosh","Chrome","118.0.0.0","OS X","10_15_7","null","en-US,en;q=0.9","<font size=""100%"" weight=bold> + $0.04</font>","null","","","","","","","","","","","","","","",""
"","null","html-keyboard-response","132","206641","0.0-13.0-0.1","3","1","2023-10-30 23:59:53","60d771905d4966a5e69ee61086df4a57","171.66.13.53","Mozilla/5.0 (Macintosh; Intel Mac OS X 10_15_7) AppleWebKit/537.36 (KHTML, like Gecko) Chrome/118.0.0.0 Safari/537.36","Macintosh","Chrome","118.0.0.0","OS X","10_15_7","null","en-US,en;q=0.9","<div style=""font-size:120%; top:20%""></div>","null","[object Object]","","","","","","","","","","","","","",""
"","352","audio-keyboard-response","133","209150","0.0-13.0-1.1","3","1","2023-10-30 23:59:53","60d771905d4966a5e69ee61086df4a57","171.66.13.53","Mozilla/5.0 (Macintosh; Intel Mac OS X 10_15_7) AppleWebKit/537.36 (KHTML, like Gecko) Chrome/118.0.0.0 Safari/537.36","Macintosh","Chrome","118.0.0.0","OS X","10_15_7","null","en-US,en;q=0.9","sound/300","80","","acquisition","","negative","2","300","700","q","300","false","","","","",""
"","null","html-keyboard-response","134","210262","0.0-13.0-2.1","3","1","2023-10-30 23:59:53","60d771905d4966a5e69ee61086df4a57","171.66.13.53","Mozilla/5.0 (Macintosh; Intel Mac OS X 10_15_7) AppleWebKit/537.36 (KHTML, like Gecko) Chrome/118.0.0.0 Safari/537.36","Macintosh","Chrome","118.0.0.0","OS X","10_15_7","null","en-US,en;q=0.9","<font size=""100%"" weight=bold> - $0.04</font>","null","","","","","","","","","","","","","","",""
"","null","html-keyboard-response","135","211769","0.0-13.0-0.2","3","1","2023-10-30 23:59:53","60d771905d4966a5e69ee61086df4a57","171.66.13.53","Mozilla/5.0 (Macintosh; Intel Mac OS X 10_15_7) AppleWebKit/537.36 (KHTML, like Gecko) Chrome/118.0.0.0 Safari/537.36","Macintosh","Chrome","118.0.0.0","OS X","10_15_7","null","en-US,en;q=0.9","<div style=""font-size:120%; top:20%""></div>","null","[object Object]","","","","","","","","","","","","","",""
"","2224","audio-keyboard-response","136","213998","0.0-13.0-1.2","3","1","2023-10-30 23:59:53","60d771905d4966a5e69ee61086df4a57","171.66.13.53","Mozilla/5.0 (Macintosh; Intel Mac OS X 10_15_7) AppleWebKit/537.36 (KHTML, like Gecko) Chrome/118.0.0.0 Safari/537.36","Macintosh","Chrome","118.0.0.0","OS X","10_15_7","null","en-US,en;q=0.9","sound/300","80","","acquisition","p","negative","2","300","700","q","300","","","","","",""
"","null","html-keyboard-response","137","215109","0.0-13.0-2.2","3","1","2023-10-30 23:59:53","60d771905d4966a5e69ee61086df4a57","171.66.13.53","Mozilla/5.0 (Macintosh; Intel Mac OS X 10_15_7) AppleWebKit/537.36 (KHTML, like Gecko) Chrome/118.0.0.0 Safari/537.36","Macintosh","Chrome","118.0.0.0","OS X","10_15_7","null","en-US,en;q=0.9","<font size=""100%"" weight=bold> - $0.04</font>","null","","","","","","","","","","","","","","",""
"","null","html-keyboard-response","138","216621","0.0-13.0-0.3","3","1","2023-10-30 23:59:53","60d771905d4966a5e69ee61086df4a57","171.66.13.53","Mozilla/5.0 (Macintosh; Intel Mac OS X 10_15_7) AppleWebKit/537.36 (KHTML, like Gecko) Chrome/118.0.0.0 Safari/537.36","Macintosh","Chrome","118.0.0.0","OS X","10_15_7","null","en-US,en;q=0.9","<div style=""font-size:120%; top:20%""></div>","null","[object Object]","","","","","","","","","","","","","",""
"","2133","audio-keyboard-response","139","218760","0.0-13.0-1.3","3","1","2023-10-30 23:59:53","60d771905d4966a5e69ee61086df4a57","171.66.13.53","Mozilla/5.0 (Macintosh; Intel Mac OS X 10_15_7) AppleWebKit/537.36 (KHTML, like Gecko) Chrome/118.0.0.0 Safari/537.36","Macintosh","Chrome","118.0.0.0","OS X","10_15_7","null","en-US,en;q=0.9","sound/500","80","","acquisition","","neutral","2","300","700","q","500","","","","","",""
"","null","html-keyboard-response","140","219878","0.0-13.0-2.3","3","1","2023-10-30 23:59:53","60d771905d4966a5e69ee61086df4a57","171.66.13.53","Mozilla/5.0 (Macintosh; Intel Mac OS X 10_15_7) AppleWebKit/537.36 (KHTML, like Gecko) Chrome/118.0.0.0 Safari/537.36","Macintosh","Chrome","118.0.0.0","OS X","10_15_7","null","en-US,en;q=0.9","<font size=""100%""></font>","null","","","","","","","","","","","","","","",""
"","null","html-keyboard-response","141","221392","0.0-13.0-0.4","3","1","2023-10-30 23:59:53","60d771905d4966a5e69ee61086df4a57","171.66.13.53","Mozilla/5.0 (Macintosh; Intel Mac OS X 10_15_7) AppleWebKit/537.36 (KHTML, like Gecko) Chrome/118.0.0.0 Safari/537.36","Macintosh","Chrome","118.0.0.0","OS X","10_15_7","null","en-US,en;q=0.9","<div style=""font-size:120%; top:20%""></div>","null","[object Object]","","","","","","","","","","","","","",""
"","null","audio-keyboard-response","142","223898","0.0-13.0-1.4","3","1","2023-10-30 23:59:53","60d771905d4966a5e69ee61086df4a57","171.66.13.53","Mozilla/5.0 (Macintosh; Intel Mac OS X 10_15_7) AppleWebKit/537.36 (KHTML, like Gecko) Chrome/118.0.0.0 Safari/537.36","Macintosh","Chrome","118.0.0.0","OS X","10_15_7","null","en-US,en;q=0.9","sound/700","null","","acquisition","q","positive","2","300","700","q","700","","","","","",""
"","null","html-keyboard-response","143","225006","0.0-13.0-2.4","3","1","2023-10-30 23:59:53","60d771905d4966a5e69ee61086df4a57","171.66.13.53","Mozilla/5.0 (Macintosh; Intel Mac OS X 10_15_7) AppleWebKit/537.36 (KHTML, like Gecko) Chrome/118.0.0.0 Safari/537.36","Macintosh","Chrome","118.0.0.0","OS X","10_15_7","null","en-US,en;q=0.9","<font size=""100%"" weight=bold> + $0.00 </font>","null","","","","","","","","","","","","","","",""
"","null","html-keyboard-response","144","226526","0.0-13.0-0.5","3","1","2023-10-30 23:59:53","60d771905d4966a5e69ee61086df4a57","171.66.13.53","Mozilla/5.0 (Macintosh; Intel Mac OS X 10_15_7) AppleWebKit/537.36 (KHTML, like Gecko) Chrome/118.0.0.0 Safari/537.36","Macintosh","Chrome","118.0.0.0","OS X","10_15_7","null","en-US,en;q=0.9","<div style=""font-size:120%; top:20%""></div>","null","[object Object]","","","","","","","","","","","","","",""
"","197","audio-keyboard-response","145","226727","0.0-13.0-1.5","3","1","2023-10-30 23:59:53","60d771905d4966a5e69ee61086df4a57","171.66.13.53","Mozilla/5.0 (Macintosh; Intel Mac OS X 10_15_7) AppleWebKit/537.36 (KHTML, like Gecko) Chrome/118.0.0.0 Safari/537.36","Macintosh","Chrome","118.0.0.0","OS X","10_15_7","null","en-US,en;q=0.9","sound/700","80","","acquisition","q","positive","2","300","700","q","700","","","","","",""
"","null","html-keyboard-response","146","227837","0.0-13.0-2.5","3","1","2023-10-30 23:59:53","60d771905d4966a5e69ee61086df4a57","171.66.13.53","Mozilla/5.0 (Macintosh; Intel Mac OS X 10_15_7) AppleWebKit/537.36 (KHTML, like Gecko) Chrome/118.0.0.0 Safari/537.36","Macintosh","Chrome","118.0.0.0","OS X","10_15_7","null","en-US,en;q=0.9","<font size=""100%"" weight=bold> + $0.00 </font>","null","","","","","","","","","","","","","","",""
"","null","html-keyboard-response","147","229347","0.0-13.0-0.6","3","1","2023-10-30 23:59:53","60d771905d4966a5e69ee61086df4a57","171.66.13.53","Mozilla/5.0 (Macintosh; Intel Mac OS X 10_15_7) AppleWebKit/537.36 (KHTML, like Gecko) Chrome/118.0.0.0 Safari/537.36","Macintosh","Chrome","118.0.0.0","OS X","10_15_7","null","en-US,en;q=0.9","<div style=""font-size:120%; top:20%""></div>","null","[object Object]","","","","","","","","","","","","","",""
"","2256","audio-keyboard-response","148","231614","0.0-13.0-1.6","3","1","2023-10-30 23:59:53","60d771905d4966a5e69ee61086df4a57","171.66.13.53","Mozilla/5.0 (Macintosh; Intel Mac OS X 10_15_7) AppleWebKit/537.36 (KHTML, like Gecko) Chrome/118.0.0.0 Safari/537.36","Macintosh","Chrome","118.0.0.0","OS X","10_15_7","null","en-US,en;q=0.9","sound/300","80","","acquisition","p","negative","2","300","700","q","300","","","","","",""
"","null","html-keyboard-response","149","232723","0.0-13.0-2.6","3","1","2023-10-30 23:59:53","60d771905d4966a5e69ee61086df4a57","171.66.13.53","Mozilla/5.0 (Macintosh; Intel Mac OS X 10_15_7) AppleWebKit/537.36 (KHTML, like Gecko) Chrome/118.0.0.0 Safari/537.36","Macintosh","Chrome","118.0.0.0","OS X","10_15_7","null","en-US,en;q=0.9","<font size=""100%"" weight=bold> - $0.04</font>","null","","","","","","","","","","","","","","",""
"","null","html-keyboard-response","150","234231","0.0-13.0-0.7","3","1","2023-10-30 23:59:53","60d771905d4966a5e69ee61086df4a57","171.66.13.53","Mozilla/5.0 (Macintosh; Intel Mac OS X 10_15_7) AppleWebKit/537.36 (KHTML, like Gecko) Chrome/118.0.0.0 Safari/537.36","Macintosh","Chrome","118.0.0.0","OS X","10_15_7","null","en-US,en;q=0.9","<div style=""font-size:120%; top:20%""></div>","null","[object Object]","","","","","","","","","","","","","",""
"","309","audio-keyboard-response","151","236755","0.0-13.0-1.7","3","1","2023-10-30 23:59:53","60d771905d4966a5e69ee61086df4a57","171.66.13.53","Mozilla/5.0 (Macintosh; Intel Mac OS X 10_15_7) AppleWebKit/537.36 (KHTML, like Gecko) Chrome/118.0.0.0 Safari/537.36","Macintosh","Chrome","118.0.0.0","OS X","10_15_7","null","en-US,en;q=0.9","sound/300","80","","acquisition","","negative","2","300","700","q","300","false","","","","",""
"","null","html-keyboard-response","152","237863","0.0-13.0-2.7","3","1","2023-10-30 23:59:53","60d771905d4966a5e69ee61086df4a57","171.66.13.53","Mozilla/5.0 (Macintosh; Intel Mac OS X 10_15_7) AppleWebKit/537.36 (KHTML, like Gecko) Chrome/118.0.0.0 Safari/537.36","Macintosh","Chrome","118.0.0.0","OS X","10_15_7","null","en-US,en;q=0.9","<font size=""100%"" weight=bold> - $0.04</font>","null","","","","","","","","","","","","","","",""
"","null","html-keyboard-response","153","239377","0.0-13.0-0.8","3","1","2023-10-30 23:59:53","60d771905d4966a5e69ee61086df4a57","171.66.13.53","Mozilla/5.0 (Macintosh; Intel Mac OS X 10_15_7) AppleWebKit/537.36 (KHTML, like Gecko) Chrome/118.0.0.0 Safari/537.36","Macintosh","Chrome","118.0.0.0","OS X","10_15_7","null","en-US,en;q=0.9","<div style=""font-size:120%; top:20%""></div>","null","[object Object]","","","","","","","","","","","","","",""
"","59","audio-keyboard-response","154","241886","0.0-13.0-1.8","3","1","2023-10-30 23:59:53","60d771905d4966a5e69ee61086df4a57","171.66.13.53","Mozilla/5.0 (Macintosh; Intel Mac OS X 10_15_7) AppleWebKit/537.36 (KHTML, like Gecko) Chrome/118.0.0.0 Safari/537.36","Macintosh","Chrome","118.0.0.0","OS X","10_15_7","null","en-US,en;q=0.9","sound/700","80","","acquisition","","positive","2","300","700","q","700","true","","","","",""
"","null","html-keyboard-response","155","243000","0.0-13.0-2.8","3","1","2023-10-30 23:59:53","60d771905d4966a5e69ee61086df4a57","171.66.13.53","Mozilla/5.0 (Macintosh; Intel Mac OS X 10_15_7) AppleWebKit/537.36 (KHTML, like Gecko) Chrome/118.0.0.0 Safari/537.36","Macintosh","Chrome","118.0.0.0","OS X","10_15_7","null","en-US,en;q=0.9","<font size=""100%"" weight=bold> + $0.04</font>","null","","","","","","","","","","","","","","",""
"","null","html-keyboard-response","156","244515","0.0-13.0-0.9","3","1","2023-10-30 23:59:53","60d771905d4966a5e69ee61086df4a57","171.66.13.53","Mozilla/5.0 (Macintosh; Intel Mac OS X 10_15_7) AppleWebKit/537.36 (KHTML, like Gecko) Chrome/118.0.0.0 Safari/537.36","Macintosh","Chrome","118.0.0.0","OS X","10_15_7","null","en-US,en;q=0.9","<div style=""font-size:120%; top:20%""></div>","null","[object Object]","","","","","","","","","","","","","",""
"","null","audio-keyboard-response","157","247031","0.0-13.0-1.9","3","1","2023-10-30 23:59:53","60d771905d4966a5e69ee61086df4a57","171.66.13.53","Mozilla/5.0 (Macintosh; Intel Mac OS X 10_15_7) AppleWebKit/537.36 (KHTML, like Gecko) Chrome/118.0.0.0 Safari/537.36","Macintosh","Chrome","118.0.0.0","OS X","10_15_7","null","en-US,en;q=0.9","sound/500","null","","acquisition","","neutral","2","300","700","q","500","","","","","",""
"","null","html-keyboard-response","158","248143","0.0-13.0-2.9","3","1","2023-10-30 23:59:53","60d771905d4966a5e69ee61086df4a57","171.66.13.53","Mozilla/5.0 (Macintosh; Intel Mac OS X 10_15_7) AppleWebKit/537.36 (KHTML, like Gecko) Chrome/118.0.0.0 Safari/537.36","Macintosh","Chrome","118.0.0.0","OS X","10_15_7","null","en-US,en;q=0.9","<font size=""100%""></font>","null","","","","","","","","","","","","","","",""
"","6839","html-keyboard-response","159","255493","0.0-14.0","3","1","2023-10-30 23:59:53","60d771905d4966a5e69ee61086df4a57","171.66.13.53","Mozilla/5.0 (Macintosh; Intel Mac OS X 10_15_7) AppleWebKit/537.36 (KHTML, like Gecko) Chrome/118.0.0.0 Safari/537.36","Macintosh","Chrome","118.0.0.0","OS X","10_15_7","null","en-US,en;q=0.9","The total bonus amount of bonus you earned in this last period was $0.00.<br> Press any key to continue to the next step.","32","","","","","","","","","","","","","","",""
"[{""page_index"":0,""viewing_time"":2559}]","2559","instructions","160","258056","0.0-15.0","3","1","2023-10-30 23:59:53","60d771905d4966a5e69ee61086df4a57","171.66.13.53","Mozilla/5.0 (Macintosh; Intel Mac OS X 10_15_7) AppleWebKit/537.36 (KHTML, like Gecko) Chrome/118.0.0.0 Safari/537.36","Macintosh","Chrome","118.0.0.0","OS X","10_15_7","null","en-US,en;q=0.9","","","","","","","","","","","","","","","","",""
"","null","html-keyboard-response","161","258969","0.0-16.0-0.0","3","1","2023-10-30 23:59:53","60d771905d4966a5e69ee61086df4a57","171.66.13.53","Mozilla/5.0 (Macintosh; Intel Mac OS X 10_15_7) AppleWebKit/537.36 (KHTML, like Gecko) Chrome/118.0.0.0 Safari/537.36","Macintosh","Chrome","118.0.0.0","OS X","10_15_7","null","en-US,en;q=0.9","","null","[object Object]","","","","","","","","","","","","","",""
"","507","audio-keyboard-response","162","259481","0.0-16.0-1.0","3","1","2023-10-30 23:59:53","60d771905d4966a5e69ee61086df4a57","171.66.13.53","Mozilla/5.0 (Macintosh; Intel Mac OS X 10_15_7) AppleWebKit/537.36 (KHTML, like Gecko) Chrome/118.0.0.0 Safari/537.36","Macintosh","Chrome","118.0.0.0","OS X","10_15_7","null","en-US,en;q=0.9","sound/280","32","","generalization","space","negative","2","300","700","q","","true","-20","20","280","false",""
"","null","html-keyboard-response","163","260489","0.0-16.0-2.0","3","1","2023-10-30 23:59:53","60d771905d4966a5e69ee61086df4a57","171.66.13.53","Mozilla/5.0 (Macintosh; Intel Mac OS X 10_15_7) AppleWebKit/537.36 (KHTML, like Gecko) Chrome/118.0.0.0 Safari/537.36","Macintosh","Chrome","118.0.0.0","OS X","10_15_7","null","en-US,en;q=0.9","","null","","","","","","","","","","","","","","",""
"","null","html-keyboard-response","164","261003","0.0-16.0-0.1","3","1","2023-10-30 23:59:53","60d771905d4966a5e69ee61086df4a57","171.66.13.53","Mozilla/5.0 (Macintosh; Intel Mac OS X 10_15_7) AppleWebKit/537.36 (KHTML, like Gecko) Chrome/118.0.0.0 Safari/537.36","Macintosh","Chrome","118.0.0.0","OS X","10_15_7","null","en-US,en;q=0.9","","null","[object Object]","","","","","","","","","","","","","",""
"","149","audio-keyboard-response","165","261156","0.0-16.0-1.1","3","1","2023-10-30 23:59:53","60d771905d4966a5e69ee61086df4a57","171.66.13.53","Mozilla/5.0 (Macintosh; Intel Mac OS X 10_15_7) AppleWebKit/537.36 (KHTML, like Gecko) Chrome/118.0.0.0 Safari/537.36","Macintosh","Chrome","118.0.0.0","OS X","10_15_7","null","en-US,en;q=0.9","sound/800","32","","generalization","space","positive","2","300","700","q","","true","100","21","800","false",""
"","null","html-keyboard-response","166","262168","0.0-16.0-2.1","3","1","2023-10-30 23:59:53","60d771905d4966a5e69ee61086df4a57","171.66.13.53","Mozilla/5.0 (Macintosh; Intel Mac OS X 10_15_7) AppleWebKit/537.36 (KHTML, like Gecko) Chrome/118.0.0.0 Safari/537.36","Macintosh","Chrome","118.0.0.0","OS X","10_15_7","null","en-US,en;q=0.9","","null","","","","","","","","","","","","","","",""
"","null","html-keyboard-response","167","262679","0.0-16.0-0.2","3","1","2023-10-30 23:59:53","60d771905d4966a5e69ee61086df4a57","171.66.13.53","Mozilla/5.0 (Macintosh; Intel Mac OS X 10_15_7) AppleWebKit/537.36 (KHTML, like Gecko) Chrome/118.0.0.0 Safari/537.36","Macintosh","Chrome","118.0.0.0","OS X","10_15_7","null","en-US,en;q=0.9","","null","[object Object]","","","","","","","","","","","","","",""
"","1499","audio-keyboard-response","168","264178","0.0-16.0-1.2","3","1","2023-10-30 23:59:53","60d771905d4966a5e69ee61086df4a57","171.66.13.53","Mozilla/5.0 (Macintosh; Intel Mac OS X 10_15_7) AppleWebKit/537.36 (KHTML, like Gecko) Chrome/118.0.0.0 Safari/537.36","Macintosh","Chrome","118.0.0.0","OS X","10_15_7","null","en-US,en;q=0.9","sound/700","80","","generalization","q","positive","2","300","700","q","","false","0","22","","false",""
"","null","html-keyboard-response","169","265186","0.0-16.0-2.2","3","1","2023-10-30 23:59:53","60d771905d4966a5e69ee61086df4a57","171.66.13.53","Mozilla/5.0 (Macintosh; Intel Mac OS X 10_15_7) AppleWebKit/537.36 (KHTML, like Gecko) Chrome/118.0.0.0 Safari/537.36","Macintosh","Chrome","118.0.0.0","OS X","10_15_7","null","en-US,en;q=0.9","","null","","","","","","","","","","","","","","",""
"","null","html-keyboard-response","170","265694","0.0-16.0-0.3","3","1","2023-10-30 23:59:53","60d771905d4966a5e69ee61086df4a57","171.66.13.53","Mozilla/5.0 (Macintosh; Intel Mac OS X 10_15_7) AppleWebKit/537.36 (KHTML, like Gecko) Chrome/118.0.0.0 Safari/537.36","Macintosh","Chrome","118.0.0.0","OS X","10_15_7","null","en-US,en;q=0.9","","null","[object Object]","","","","","","","","","","","","","",""
"","672","audio-keyboard-response","171","266377","0.0-16.0-1.3","3","1","2023-10-30 23:59:53","60d771905d4966a5e69ee61086df4a57","171.66.13.53","Mozilla/5.0 (Macintosh; Intel Mac OS X 10_15_7) AppleWebKit/537.36 (KHTML, like Gecko) Chrome/118.0.0.0 Safari/537.36","Macintosh","Chrome","118.0.0.0","OS X","10_15_7","null","en-US,en;q=0.9","sound/720","80","","generalization","space","positive","2","300","700","q","","false","20","23","720","false",""
"","null","html-keyboard-response","172","267383","0.0-16.0-2.3","3","1","2023-10-30 23:59:53","60d771905d4966a5e69ee61086df4a57","171.66.13.53","Mozilla/5.0 (Macintosh; Intel Mac OS X 10_15_7) AppleWebKit/537.36 (KHTML, like Gecko) Chrome/118.0.0.0 Safari/537.36","Macintosh","Chrome","118.0.0.0","OS X","10_15_7","null","en-US,en;q=0.9","","null","","","","","","","","","","","","","","",""
"","null","html-keyboard-response","173","267892","0.0-16.0-0.4","3","1","2023-10-30 23:59:53","60d771905d4966a5e69ee61086df4a57","171.66.13.53","Mozilla/5.0 (Macintosh; Intel Mac OS X 10_15_7) AppleWebKit/537.36 (KHTML, like Gecko) Chrome/118.0.0.0 Safari/537.36","Macintosh","Chrome","118.0.0.0","OS X","10_15_7","null","en-US,en;q=0.9","","null","[object Object]","","","","","","","","","","","","","",""
"","288","audio-keyboard-response","174","268179","0.0-16.0-1.4","3","1","2023-10-30 23:59:53","60d771905d4966a5e69ee61086df4a57","171.66.13.53","Mozilla/5.0 (Macintosh; Intel Mac OS X 10_15_7) AppleWebKit/537.36 (KHTML, like Gecko) Chrome/118.0.0.0 Safari/537.36","Macintosh","Chrome","118.0.0.0","OS X","10_15_7","null","en-US,en;q=0.9","sound/400","80","","generalization","space","negative","2","300","700","q","","false","100","24","400","true",""
"","null","html-keyboard-response","175","269188","0.0-16.0-2.4","3","1","2023-10-30 23:59:53","60d771905d4966a5e69ee61086df4a57","171.66.13.53","Mozilla/5.0 (Macintosh; Intel Mac OS X 10_15_7) AppleWebKit/537.36 (KHTML, like Gecko) Chrome/118.0.0.0 Safari/537.36","Macintosh","Chrome","118.0.0.0","OS X","10_15_7","null","en-US,en;q=0.9","","null","","","","","","","","","","","","","","",""
"","null","html-keyboard-response","176","269705","0.0-16.0-0.5","3","1","2023-10-30 23:59:53","60d771905d4966a5e69ee61086df4a57","171.66.13.53","Mozilla/5.0 (Macintosh; Intel Mac OS X 10_15_7) AppleWebKit/537.36 (KHTML, like Gecko) Chrome/118.0.0.0 Safari/537.36","Macintosh","Chrome","118.0.0.0","OS X","10_15_7","null","en-US,en;q=0.9","","null","[object Object]","","","","","","","","","","","","","",""
"","395","audio-keyboard-response","177","270103","0.0-16.0-1.5","3","1","2023-10-30 23:59:53","60d771905d4966a5e69ee61086df4a57","171.66.13.53","Mozilla/5.0 (Macintosh; Intel Mac OS X 10_15_7) AppleWebKit/537.36 (KHTML, like Gecko) Chrome/118.0.0.0 Safari/537.36","Macintosh","Chrome","118.0.0.0","OS X","10_15_7","null","en-US,en;q=0.9","sound/600","80","","generalization","space","positive","2","300","700","q","","false","-100","25","600","false",""
"","null","html-keyboard-response","178","271111","0.0-16.0-2.5","3","1","2023-10-30 23:59:53","60d771905d4966a5e69ee61086df4a57","171.66.13.53","Mozilla/5.0 (Macintosh; Intel Mac OS X 10_15_7) AppleWebKit/537.36 (KHTML, like Gecko) Chrome/118.0.0.0 Safari/537.36","Macintosh","Chrome","118.0.0.0","OS X","10_15_7","null","en-US,en;q=0.9","","null","","","","","","","","","","","","","","",""
"","null","html-keyboard-response","179","271621","0.0-16.0-0.6","3","1","2023-10-30 23:59:53","60d771905d4966a5e69ee61086df4a57","171.66.13.53","Mozilla/5.0 (Macintosh; Intel Mac OS X 10_15_7) AppleWebKit/537.36 (KHTML, like Gecko) Chrome/118.0.0.0 Safari/537.36","Macintosh","Chrome","118.0.0.0","OS X","10_15_7","null","en-US,en;q=0.9","","null","[object Object]","","","","","","","","","","","","","",""
"","565","audio-keyboard-response","180","272198","0.0-16.0-1.6","3","1","2023-10-30 23:59:53","60d771905d4966a5e69ee61086df4a57","171.66.13.53","Mozilla/5.0 (Macintosh; Intel Mac OS X 10_15_7) AppleWebKit/537.36 (KHTML, like Gecko) Chrome/118.0.0.0 Safari/537.36","Macintosh","Chrome","118.0.0.0","OS X","10_15_7","null","en-US,en;q=0.9","sound/320","81","","generalization","space","negative","2","300","700","q","","false","20","26","320","false",""
"","null","html-keyboard-response","181","273209","0.0-16.0-2.6","3","1","2023-10-30 23:59:53","60d771905d4966a5e69ee61086df4a57","171.66.13.53","Mozilla/5.0 (Macintosh; Intel Mac OS X 10_15_7) AppleWebKit/537.36 (KHTML, like Gecko) Chrome/118.0.0.0 Safari/537.36","Macintosh","Chrome","118.0.0.0","OS X","10_15_7","null","en-US,en;q=0.9","","null","","","","","","","","","","","","","","",""
"","null","html-keyboard-response","182","273719","0.0-16.0-0.7","3","1","2023-10-30 23:59:53","60d771905d4966a5e69ee61086df4a57","171.66.13.53","Mozilla/5.0 (Macintosh; Intel Mac OS X 10_15_7) AppleWebKit/537.36 (KHTML, like Gecko) Chrome/118.0.0.0 Safari/537.36","Macintosh","Chrome","118.0.0.0","OS X","10_15_7","null","en-US,en;q=0.9","","null","[object Object]","","","","","","","","","","","","","",""
"","491","audio-keyboard-response","183","274216","0.0-16.0-1.7","3","1","2023-10-30 23:59:53","60d771905d4966a5e69ee61086df4a57","171.66.13.53","Mozilla/5.0 (Macintosh; Intel Mac OS X 10_15_7) AppleWebKit/537.36 (KHTML, like Gecko) Chrome/118.0.0.0 Safari/537.36","Macintosh","Chrome","118.0.0.0","OS X","10_15_7","null","en-US,en;q=0.9","sound/200","80","","generalization","space","negative","2","300","700","q","","false","-100","27","200","true",""
"","null","html-keyboard-response","184","275220","0.0-16.0-2.7","3","1","2023-10-30 23:59:53","60d771905d4966a5e69ee61086df4a57","171.66.13.53","Mozilla/5.0 (Macintosh; Intel Mac OS X 10_15_7) AppleWebKit/537.36 (KHTML, like Gecko) Chrome/118.0.0.0 Safari/537.36","Macintosh","Chrome","118.0.0.0","OS X","10_15_7","null","en-US,en;q=0.9","","null","","","","","","","","","","","","","","",""
"","null","html-keyboard-response","185","275727","0.0-16.0-0.8","3","1","2023-10-30 23:59:53","60d771905d4966a5e69ee61086df4a57","171.66.13.53","Mozilla/5.0 (Macintosh; Intel Mac OS X 10_15_7) AppleWebKit/537.36 (KHTML, like Gecko) Chrome/118.0.0.0 Safari/537.36","Macintosh","Chrome","118.0.0.0","OS X","10_15_7","null","en-US,en;q=0.9","","null","[object Object]","","","","","","","","","","","","","",""
"","400","audio-keyboard-response","186","276131","0.0-16.0-1.8","3","1","2023-10-30 23:59:53","60d771905d4966a5e69ee61086df4a57","171.66.13.53","Mozilla/5.0 (Macintosh; Intel Mac OS X 10_15_7) AppleWebKit/537.36 (KHTML, like Gecko) Chrome/118.0.0.0 Safari/537.36","Macintosh","Chrome","118.0.0.0","OS X","10_15_7","null","en-US,en;q=0.9","sound/680","81","","generalization","space","positive","2","300","700","q","","false","-20","28","680","true",""
"","null","html-keyboard-response","187","277140","0.0-16.0-2.8","3","1","2023-10-30 23:59:53","60d771905d4966a5e69ee61086df4a57","171.66.13.53","Mozilla/5.0 (Macintosh; Intel Mac OS X 10_15_7) AppleWebKit/537.36 (KHTML, like Gecko) Chrome/118.0.0.0 Safari/537.36","Macintosh","Chrome","118.0.0.0","OS X","10_15_7","null","en-US,en;q=0.9","","null","","","","","","","","","","","","","","",""
"","null","html-keyboard-response","188","277653","0.0-16.0-0.9","3","1","2023-10-30 23:59:53","60d771905d4966a5e69ee61086df4a57","171.66.13.53","Mozilla/5.0 (Macintosh; Intel Mac OS X 10_15_7) AppleWebKit/537.36 (KHTML, like Gecko) Chrome/118.0.0.0 Safari/537.36","Macintosh","Chrome","118.0.0.0","OS X","10_15_7","null","en-US,en;q=0.9","","null","[object Object]","","","","","","","","","","","","","",""
"","293","audio-keyboard-response","189","277950","0.0-16.0-1.9","3","1","2023-10-30 23:59:53","60d771905d4966a5e69ee61086df4a57","171.66.13.53","Mozilla/5.0 (Macintosh; Intel Mac OS X 10_15_7) AppleWebKit/537.36 (KHTML, like Gecko) Chrome/118.0.0.0 Safari/537.36","Macintosh","Chrome","118.0.0.0","OS X","10_15_7","null","en-US,en;q=0.9","sound/300","80","","generalization","p","negative","2","300","700","q","","true","0","29","","true",""
"","null","html-keyboard-response","190","278969","0.0-16.0-2.9","3","1","2023-10-30 23:59:53","60d771905d4966a5e69ee61086df4a57","171.66.13.53","Mozilla/5.0 (Macintosh; Intel Mac OS X 10_15_7) AppleWebKit/537.36 (KHTML, like Gecko) Chrome/118.0.0.0 Safari/537.36","Macintosh","Chrome","118.0.0.0","OS X","10_15_7","null","en-US,en;q=0.9","","null","","","","","","","","","","","","","","",""
"","2122","html-keyboard-response","191","281094","0.0-17.0","3","1","2023-10-30 23:59:53","60d771905d4966a5e69ee61086df4a57","171.66.13.53","Mozilla/5.0 (Macintosh; Intel Mac OS X 10_15_7) AppleWebKit/537.36 (KHTML, like Gecko) Chrome/118.0.0.0 Safari/537.36","Macintosh","Chrome","118.0.0.0","OS X","10_15_7","null","en-US,en;q=0.9","bonus earned during this period: $0.12<br><br>Press any key to continue.","32","","","","","","","","","","","","","","",""
"","3561","survey-text","192","284662","0.0-18.0","3","1","2023-10-30 23:59:53","60d771905d4966a5e69ee61086df4a57","171.66.13.53","Mozilla/5.0 (Macintosh; Intel Mac OS X 10_15_7) AppleWebKit/537.36 (KHTML, like Gecko) Chrome/118.0.0.0 Safari/537.36","Macintosh","Chrome","118.0.0.0","OS X","10_15_7","null","en-US,en;q=0.9","","","","","","","","","","","","","","","","","{""Q0"":""good woerk""}"
