"view_history","rt","trial_type","trial_index","time_elapsed","internal_node_id","run_id","condition","recorded_at","source_code_version","ip","user_agent","device","browser","browser_version","platform","platform_version","referer","accept_language","stimulus","key_press","trial_info","stage","correct_response","valence","i_block","negative_tone","positive_tone","positive_key","frequency","correct","tone","distance","i_generalization_trial","valence_match","responses"
"[{""page_index"":0,""viewing_time"":4053},{""page_index"":1,""viewing_time"":1434},{""page_index"":2,""viewing_time"":960},{""page_index"":3,""viewing_time"":3533},{""page_index"":4,""viewing_time"":686},{""page_index"":5,""viewing_time"":1244},{""page_index"":6,""viewing_time"":114881},{""page_index"":7,""viewing_time"":2100},{""page_index"":8,""viewing_time"":1915}]","130809","instructions","0","130810","0.0-0.0","1","1","2023-10-30 23:52:03","ec53d80472dcc330b6ccf60011d5c0d4","171.66.13.53","Mozilla/5.0 (Macintosh; Intel Mac OS X 10_15_7) AppleWebKit/537.36 (KHTML, like Gecko) Chrome/118.0.0.0 Safari/537.36","Macintosh","Chrome","118.0.0.0","OS X","10_15_7","null","en-US,en;q=0.9","","","","","","","","","","","","","","","","",""
"","null","html-keyboard-response","1","132818","0.0-1.0-0.0","1","1","2023-10-30 23:52:03","ec53d80472dcc330b6ccf60011d5c0d4","171.66.13.53","Mozilla/5.0 (Macintosh; Intel Mac OS X 10_15_7) AppleWebKit/537.36 (KHTML, like Gecko) Chrome/118.0.0.0 Safari/537.36","Macintosh","Chrome","118.0.0.0","OS X","10_15_7","null","en-US,en;q=0.9","<div style=""font-size:120%; top:20%""></div>","null","[object Object]","","","","","","","","","","","","","",""
"","1947","audio-keyboard-response","2","134809","0.0-1.0-1.0","1","1","2023-10-30 23:52:03","ec53d80472dcc330b6ccf60011d5c0d4","171.66.13.53","Mozilla/5.0 (Macintosh; Intel Mac OS X 10_15_7) AppleWebKit/537.36 (KHTML, like Gecko) Chrome/118.0.0.0 Safari/537.36","Macintosh","Chrome","118.0.0.0","OS X","10_15_7","null","en-US,en;q=0.9","sound/300","80","","acquisition","q","positive","0","700","300","q","300","","","","","",""
"","null","html-keyboard-response","4","137435","0.0-1.0-0.1","1","1","2023-10-30 23:52:03","ec53d80472dcc330b6ccf60011d5c0d4","171.66.13.53","Mozilla/5.0 (Macintosh; Intel Mac OS X 10_15_7) AppleWebKit/537.36 (KHTML, like Gecko) Chrome/118.0.0.0 Safari/537.36","Macintosh","Chrome","118.0.0.0","OS X","10_15_7","null","en-US,en;q=0.9","<div style=""font-size:120%; top:20%""></div>","null","[object Object]","","","","","","","","","","","","","",""
"","null","audio-keyboard-response","5","139939","0.0-1.0-1.1","1","1","2023-10-30 23:52:03","ec53d80472dcc330b6ccf60011d5c0d4","171.66.13.53","Mozilla/5.0 (Macintosh; Intel Mac OS X 10_15_7) AppleWebKit/537.36 (KHTML, like Gecko) Chrome/118.0.0.0 Safari/537.36","Macintosh","Chrome","118.0.0.0","OS X","10_15_7","null","en-US,en;q=0.9","sound/300","null","","acquisition","","positive","0","700","300","q","300","true","","","","",""
"","null","html-keyboard-response","6","141050","0.0-1.0-2.1","1","1","2023-10-30 23:52:03","ec53d80472dcc330b6ccf60011d5c0d4","171.66.13.53","Mozilla/5.0 (Macintosh; Intel Mac OS X 10_15_7) AppleWebKit/537.36 (KHTML, like Gecko) Chrome/118.0.0.0 Safari/537.36","Macintosh","Chrome","118.0.0.0","OS X","10_15_7","null","en-US,en;q=0.9","<font size=""100%"" weight=bold> + $0.04</font>","null","","","","","","","","","","","","","","",""
"","null","html-keyboard-response","7","142563","0.0-1.0-0.2","1","1","2023-10-30 23:52:03","ec53d80472dcc330b6ccf60011d5c0d4","171.66.13.53","Mozilla/5.0 (Macintosh; Intel Mac OS X 10_15_7) AppleWebKit/537.36 (KHTML, like Gecko) Chrome/118.0.0.0 Safari/537.36","Macintosh","Chrome","118.0.0.0","OS X","10_15_7","null","en-US,en;q=0.9","<div style=""font-size:120%; top:20%""></div>","null","[object Object]","","","","","","","","","","","","","",""
"","1429","audio-keyboard-response","8","143993","0.0-1.0-1.2","1","1","2023-10-30 23:52:03","ec53d80472dcc330b6ccf60011d5c0d4","171.66.13.53","Mozilla/5.0 (Macintosh; Intel Mac OS X 10_15_7) AppleWebKit/537.36 (KHTML, like Gecko) Chrome/118.0.0.0 Safari/537.36","Macintosh","Chrome","118.0.0.0","OS X","10_15_7","null","en-US,en;q=0.9","sound/500","80","","acquisition","","neutral","0","700","300","q","500","","","","","",""
"","null","html-keyboard-response","9","145101","0.0-1.0-2.2","1","1","2023-10-30 23:52:03","ec53d80472dcc330b6ccf60011d5c0d4","171.66.13.53","Mozilla/5.0 (Macintosh; Intel Mac OS X 10_15_7) AppleWebKit/537.36 (KHTML, like Gecko) Chrome/118.0.0.0 Safari/537.36","Macintosh","Chrome","118.0.0.0","OS X","10_15_7","null","en-US,en;q=0.9","<font size=""100%""></font>","null","","","","","","","","","","","","","","",""
"","null","html-keyboard-response","10","146607","0.0-1.0-0.3","1","1","2023-10-30 23:52:03","ec53d80472dcc330b6ccf60011d5c0d4","171.66.13.53","Mozilla/5.0 (Macintosh; Intel Mac OS X 10_15_7) AppleWebKit/537.36 (KHTML, like Gecko) Chrome/118.0.0.0 Safari/537.36","Macintosh","Chrome","118.0.0.0","OS X","10_15_7","null","en-US,en;q=0.9","<div style=""font-size:120%; top:20%""></div>","null","[object Object]","","","","","","","","","","","","","",""
"","704","audio-keyboard-response","11","147317","0.0-1.0-1.3","1","1","2023-10-30 23:52:03","ec53d80472dcc330b6ccf60011d5c0d4","171.66.13.53","Mozilla/5.0 (Macintosh; Intel Mac OS X 10_15_7) AppleWebKit/537.36 (KHTML, like Gecko) Chrome/118.0.0.0 Safari/537.36","Macintosh","Chrome","118.0.0.0","OS X","10_15_7","null","en-US,en;q=0.9","sound/700","81","","acquisition","p","negative","0","700","300","q","700","","","","","",""
"","null","html-keyboard-response","12","148426","0.0-1.0-2.3","1","1","2023-10-30 23:52:03","ec53d80472dcc330b6ccf60011d5c0d4","171.66.13.53","Mozilla/5.0 (Macintosh; Intel Mac OS X 10_15_7) AppleWebKit/537.36 (KHTML, like Gecko) Chrome/118.0.0.0 Safari/537.36","Macintosh","Chrome","118.0.0.0","OS X","10_15_7","null","en-US,en;q=0.9","<font size=""100%"" weight=bold> - $0.04</font>","null","","","","","","","","","","","","","","",""
"","null","html-keyboard-response","13","149936","0.0-1.0-0.4","1","1","2023-10-30 23:52:03","ec53d80472dcc330b6ccf60011d5c0d4","171.66.13.53","Mozilla/5.0 (Macintosh; Intel Mac OS X 10_15_7) AppleWebKit/537.36 (KHTML, like Gecko) Chrome/118.0.0.0 Safari/537.36","Macintosh","Chrome","118.0.0.0","OS X","10_15_7","null","en-US,en;q=0.9","<div style=""font-size:120%; top:20%""></div>","null","[object Object]","","","","","","","","","","","","","",""
"","null","audio-keyboard-response","14","152441","0.0-1.0-1.4","1","1","2023-10-30 23:52:03","ec53d80472dcc330b6ccf60011d5c0d4","171.66.13.53","Mozilla/5.0 (Macintosh; Intel Mac OS X 10_15_7) AppleWebKit/537.36 (KHTML, like Gecko) Chrome/118.0.0.0 Safari/537.36","Macintosh","Chrome","118.0.0.0","OS X","10_15_7","null","en-US,en;q=0.9","sound/700","null","","acquisition","","negative","0","700","300","q","700","false","","","","",""
"","null","html-keyboard-response","15","153553","0.0-1.0-2.4","1","1","2023-10-30 23:52:03","ec53d80472dcc330b6ccf60011d5c0d4","171.66.13.53","Mozilla/5.0 (Macintosh; Intel Mac OS X 10_15_7) AppleWebKit/537.36 (KHTML, like Gecko) Chrome/118.0.0.0 Safari/537.36","Macintosh","Chrome","118.0.0.0","OS X","10_15_7","null","en-US,en;q=0.9","<font size=""100%"" weight=bold> - $0.04</font>","null","","","","","","","","","","","","","","",""
"","null","html-keyboard-response","16","155065","0.0-1.0-0.5","1","1","2023-10-30 23:52:03","ec53d80472dcc330b6ccf60011d5c0d4","171.66.13.53","Mozilla/5.0 (Macintosh; Intel Mac OS X 10_15_7) AppleWebKit/537.36 (KHTML, like Gecko) Chrome/118.0.0.0 Safari/537.36","Macintosh","Chrome","118.0.0.0","OS X","10_15_7","null","en-US,en;q=0.9","<div style=""font-size:120%; top:20%""></div>","null","[object Object]","","","","","","","","","","","","","",""
"","2187","audio-keyboard-response","17","157573","0.0-1.0-1.5","1","1","2023-10-30 23:52:03","ec53d80472dcc330b6ccf60011d5c0d4","171.66.13.53","Mozilla/5.0 (Macintosh; Intel Mac OS X 10_15_7) AppleWebKit/537.36 (KHTML, like Gecko) Chrome/118.0.0.0 Safari/537.36","Macintosh","Chrome","118.0.0.0","OS X","10_15_7","null","en-US,en;q=0.9","sound/300","80","","acquisition","","positive","0","700","300","q","300","true","","","","",""
"","null","html-keyboard-response","18","158679","0.0-1.0-2.5","1","1","2023-10-30 23:52:03","ec53d80472dcc330b6ccf60011d5c0d4","171.66.13.53","Mozilla/5.0 (Macintosh; Intel Mac OS X 10_15_7) AppleWebKit/537.36 (KHTML, like Gecko) Chrome/118.0.0.0 Safari/537.36","Macintosh","Chrome","118.0.0.0","OS X","10_15_7","null","en-US,en;q=0.9","<font size=""100%"" weight=bold> + $0.04</font>","null","","","","","","","","","","","","","","",""
"","null","html-keyboard-response","19","160186","0.0-1.0-0.6","1","1","2023-10-30 23:52:03","ec53d80472dcc330b6ccf60011d5c0d4","171.66.13.53","Mozilla/5.0 (Macintosh; Intel Mac OS X 10_15_7) AppleWebKit/537.36 (KHTML, like Gecko) Chrome/118.0.0.0 Safari/537.36","Macintosh","Chrome","118.0.0.0","OS X","10_15_7","null","en-US,en;q=0.9","<div style=""font-size:120%; top:20%""></div>","null","[object Object]","","","","","","","","","","","","","",""
"","101","audio-keyboard-response","20","162694","0.0-1.0-1.6","1","1","2023-10-30 23:52:03","ec53d80472dcc330b6ccf60011d5c0d4","171.66.13.53","Mozilla/5.0 (Macintosh; Intel Mac OS X 10_15_7) AppleWebKit/537.36 (KHTML, like Gecko) Chrome/118.0.0.0 Safari/537.36","Macintosh","Chrome","118.0.0.0","OS X","10_15_7","null","en-US,en;q=0.9","sound/700","80","","acquisition","","negative","0","700","300","q","700","false","","","","",""
"","null","html-keyboard-response","21","163801","0.0-1.0-2.6","1","1","2023-10-30 23:52:03","ec53d80472dcc330b6ccf60011d5c0d4","171.66.13.53","Mozilla/5.0 (Macintosh; Intel Mac OS X 10_15_7) AppleWebKit/537.36 (KHTML, like Gecko) Chrome/118.0.0.0 Safari/537.36","Macintosh","Chrome","118.0.0.0","OS X","10_15_7","null","en-US,en;q=0.9","<font size=""100%"" weight=bold> - $0.04</font>","null","","","","","","","","","","","","","","",""
"","null","html-keyboard-response","22","165315","0.0-1.0-0.7","1","1","2023-10-30 23:52:03","ec53d80472dcc330b6ccf60011d5c0d4","171.66.13.53","Mozilla/5.0 (Macintosh; Intel Mac OS X 10_15_7) AppleWebKit/537.36 (KHTML, like Gecko) Chrome/118.0.0.0 Safari/537.36","Macintosh","Chrome","118.0.0.0","OS X","10_15_7","null","en-US,en;q=0.9","<div style=""font-size:120%; top:20%""></div>","null","[object Object]","","","","","","","","","","","","","",""
"","763","audio-keyboard-response","23","166083","0.0-1.0-1.7","1","1","2023-10-30 23:52:03","ec53d80472dcc330b6ccf60011d5c0d4","171.66.13.53","Mozilla/5.0 (Macintosh; Intel Mac OS X 10_15_7) AppleWebKit/537.36 (KHTML, like Gecko) Chrome/118.0.0.0 Safari/537.36","Macintosh","Chrome","118.0.0.0","OS X","10_15_7","null","en-US,en;q=0.9","sound/300","80","","acquisition","q","positive","0","700","300","q","300","","","","","",""
"","null","html-keyboard-response","24","167193","0.0-1.0-2.7","1","1","2023-10-30 23:52:03","ec53d80472dcc330b6ccf60011d5c0d4","171.66.13.53","Mozilla/5.0 (Macintosh; Intel Mac OS X 10_15_7) AppleWebKit/537.36 (KHTML, like Gecko) Chrome/118.0.0.0 Safari/537.36","Macintosh","Chrome","118.0.0.0","OS X","10_15_7","null","en-US,en;q=0.9","<font size=""100%"" weight=bold> + $0.00 </font>","null","","","","","","","","","","","","","","",""
"","null","html-keyboard-response","25","168698","0.0-1.0-0.8","1","1","2023-10-30 23:52:03","ec53d80472dcc330b6ccf60011d5c0d4","171.66.13.53","Mozilla/5.0 (Macintosh; Intel Mac OS X 10_15_7) AppleWebKit/537.36 (KHTML, like Gecko) Chrome/118.0.0.0 Safari/537.36","Macintosh","Chrome","118.0.0.0","OS X","10_15_7","null","en-US,en;q=0.9","<div style=""font-size:120%; top:20%""></div>","null","[object Object]","","","","","","","","","","","","","",""
"","32","audio-keyboard-response","26","168737","0.0-1.0-1.8","1","1","2023-10-30 23:52:03","ec53d80472dcc330b6ccf60011d5c0d4","171.66.13.53","Mozilla/5.0 (Macintosh; Intel Mac OS X 10_15_7) AppleWebKit/537.36 (KHTML, like Gecko) Chrome/118.0.0.0 Safari/537.36","Macintosh","Chrome","118.0.0.0","OS X","10_15_7","null","en-US,en;q=0.9","sound/700","80","","acquisition","p","negative","0","700","300","q","700","","","","","",""
"","null","html-keyboard-response","27","169844","0.0-1.0-2.8","1","1","2023-10-30 23:52:03","ec53d80472dcc330b6ccf60011d5c0d4","171.66.13.53","Mozilla/5.0 (Macintosh; Intel Mac OS X 10_15_7) AppleWebKit/537.36 (KHTML, like Gecko) Chrome/118.0.0.0 Safari/537.36","Macintosh","Chrome","118.0.0.0","OS X","10_15_7","null","en-US,en;q=0.9","<font size=""100%"" weight=bold> - $0.04</font>","null","","","","","","","","","","","","","","",""
"","null","html-keyboard-response","28","171350","0.0-1.0-0.9","1","1","2023-10-30 23:52:03","ec53d80472dcc330b6ccf60011d5c0d4","171.66.13.53","Mozilla/5.0 (Macintosh; Intel Mac OS X 10_15_7) AppleWebKit/537.36 (KHTML, like Gecko) Chrome/118.0.0.0 Safari/537.36","Macintosh","Chrome","118.0.0.0","OS X","10_15_7","null","en-US,en;q=0.9","<div style=""font-size:120%; top:20%""></div>","null","[object Object]","","","","","","","","","","","","","",""
"","341","audio-keyboard-response","29","171693","0.0-1.0-1.9","1","1","2023-10-30 23:52:03","ec53d80472dcc330b6ccf60011d5c0d4","171.66.13.53","Mozilla/5.0 (Macintosh; Intel Mac OS X 10_15_7) AppleWebKit/537.36 (KHTML, like Gecko) Chrome/118.0.0.0 Safari/537.36","Macintosh","Chrome","118.0.0.0","OS X","10_15_7","null","en-US,en;q=0.9","sound/500","80","","acquisition","","neutral","0","700","300","q","500","","","","","",""
"","null","html-keyboard-response","30","172800","0.0-1.0-2.9","1","1","2023-10-30 23:52:03","ec53d80472dcc330b6ccf60011d5c0d4","171.66.13.53","Mozilla/5.0 (Macintosh; Intel Mac OS X 10_15_7) AppleWebKit/537.36 (KHTML, like Gecko) Chrome/118.0.0.0 Safari/537.36","Macintosh","Chrome","118.0.0.0","OS X","10_15_7","null","en-US,en;q=0.9","<font size=""100%""></font>","null","","","","","","","","","","","","","","",""
"","3170","html-keyboard-response","31","176476","0.0-2.0","1","1","2023-10-30 23:52:03","ec53d80472dcc330b6ccf60011d5c0d4","171.66.13.53","Mozilla/5.0 (Macintosh; Intel Mac OS X 10_15_7) AppleWebKit/537.36 (KHTML, like Gecko) Chrome/118.0.0.0 Safari/537.36","Macintosh","Chrome","118.0.0.0","OS X","10_15_7","null","en-US,en;q=0.9","The total bonus amount of bonus you earned in this last period was $0.00.<br> Press any key to continue to the next step.","32","","","","","","","","","","","","","","",""
"[{""page_index"":0,""viewing_time"":1029},{""page_index"":1,""viewing_time"":667},{""page_index"":2,""viewing_time"":1016},{""page_index"":3,""viewing_time"":1618},{""page_index"":4,""viewing_time"":700}]","5030","instructions","32","181508","0.0-3.0","1","1","2023-10-30 23:52:03","ec53d80472dcc330b6ccf60011d5c0d4","171.66.13.53","Mozilla/5.0 (Macintosh; Intel Mac OS X 10_15_7) AppleWebKit/537.36 (KHTML, like Gecko) Chrome/118.0.0.0 Safari/537.36","Macintosh","Chrome","118.0.0.0","OS X","10_15_7","null","en-US,en;q=0.9","","","","","","","","","","","","","","","","",""
"","null","html-keyboard-response","33","182412","0.0-4.0-0.0","1","1","2023-10-30 23:52:03","ec53d80472dcc330b6ccf60011d5c0d4","171.66.13.53","Mozilla/5.0 (Macintosh; Intel Mac OS X 10_15_7) AppleWebKit/537.36 (KHTML, like Gecko) Chrome/118.0.0.0 Safari/537.36","Macintosh","Chrome","118.0.0.0","OS X","10_15_7","null","en-US,en;q=0.9","","null","[object Object]","","","","","","","","","","","","","",""
"","1173","audio-keyboard-response","34","183590","0.0-4.0-1.0","1","1","2023-10-30 23:52:03","ec53d80472dcc330b6ccf60011d5c0d4","171.66.13.53","Mozilla/5.0 (Macintosh; Intel Mac OS X 10_15_7) AppleWebKit/537.36 (KHTML, like Gecko) Chrome/118.0.0.0 Safari/537.36","Macintosh","Chrome","118.0.0.0","OS X","10_15_7","null","en-US,en;q=0.9","sound/400","80","","generalization","space","positive","0","700","300","q","","false","400","100","0","false",""
"","null","html-keyboard-response","35","184594","0.0-4.0-2.0","1","1","2023-10-30 23:52:03","ec53d80472dcc330b6ccf60011d5c0d4","171.66.13.53","Mozilla/5.0 (Macintosh; Intel Mac OS X 10_15_7) AppleWebKit/537.36 (KHTML, like Gecko) Chrome/118.0.0.0 Safari/537.36","Macintosh","Chrome","118.0.0.0","OS X","10_15_7","null","en-US,en;q=0.9","","null","","","","","","","","","","","","","","",""
"","null","html-keyboard-response","36","185098","0.0-4.0-0.1","1","1","2023-10-30 23:52:03","ec53d80472dcc330b6ccf60011d5c0d4","171.66.13.53","Mozilla/5.0 (Macintosh; Intel Mac OS X 10_15_7) AppleWebKit/537.36 (KHTML, like Gecko) Chrome/118.0.0.0 Safari/537.36","Macintosh","Chrome","118.0.0.0","OS X","10_15_7","null","en-US,en;q=0.9","","null","[object Object]","","","","","","","","","","","","","",""
"","1003","audio-keyboard-response","37","186104","0.0-4.0-1.1","1","1","2023-10-30 23:52:03","ec53d80472dcc330b6ccf60011d5c0d4","171.66.13.53","Mozilla/5.0 (Macintosh; Intel Mac OS X 10_15_7) AppleWebKit/537.36 (KHTML, like Gecko) Chrome/118.0.0.0 Safari/537.36","Macintosh","Chrome","118.0.0.0","OS X","10_15_7","null","en-US,en;q=0.9","sound/680","80","","generalization","space","negative","0","700","300","q","","false","680","-20","1","true",""
"","null","html-keyboard-response","38","187112","0.0-4.0-2.1","1","1","2023-10-30 23:52:03","ec53d80472dcc330b6ccf60011d5c0d4","171.66.13.53","Mozilla/5.0 (Macintosh; Intel Mac OS X 10_15_7) AppleWebKit/537.36 (KHTML, like Gecko) Chrome/118.0.0.0 Safari/537.36","Macintosh","Chrome","118.0.0.0","OS X","10_15_7","null","en-US,en;q=0.9","","null","","","","","","","","","","","","","","",""
"","null","html-keyboard-response","39","187616","0.0-4.0-0.2","1","1","2023-10-30 23:52:03","ec53d80472dcc330b6ccf60011d5c0d4","171.66.13.53","Mozilla/5.0 (Macintosh; Intel Mac OS X 10_15_7) AppleWebKit/537.36 (KHTML, like Gecko) Chrome/118.0.0.0 Safari/537.36","Macintosh","Chrome","118.0.0.0","OS X","10_15_7","null","en-US,en;q=0.9","","null","[object Object]","","","","","","","","","","","","","",""
"","427","audio-keyboard-response","40","188048","0.0-4.0-1.2","1","1","2023-10-30 23:52:03","ec53d80472dcc330b6ccf60011d5c0d4","171.66.13.53","Mozilla/5.0 (Macintosh; Intel Mac OS X 10_15_7) AppleWebKit/537.36 (KHTML, like Gecko) Chrome/118.0.0.0 Safari/537.36","Macintosh","Chrome","118.0.0.0","OS X","10_15_7","null","en-US,en;q=0.9","sound/300","80","","generalization","q","positive","0","700","300","q","","false","","0","2","false",""
"","null","html-keyboard-response","41","189054","0.0-4.0-2.2","1","1","2023-10-30 23:52:03","ec53d80472dcc330b6ccf60011d5c0d4","171.66.13.53","Mozilla/5.0 (Macintosh; Intel Mac OS X 10_15_7) AppleWebKit/537.36 (KHTML, like Gecko) Chrome/118.0.0.0 Safari/537.36","Macintosh","Chrome","118.0.0.0","OS X","10_15_7","null","en-US,en;q=0.9","","null","","","","","","","","","","","","","","",""
"","null","html-keyboard-response","42","189562","0.0-4.0-0.3","1","1","2023-10-30 23:52:03","ec53d80472dcc330b6ccf60011d5c0d4","171.66.13.53","Mozilla/5.0 (Macintosh; Intel Mac OS X 10_15_7) AppleWebKit/537.36 (KHTML, like Gecko) Chrome/118.0.0.0 Safari/537.36","Macintosh","Chrome","118.0.0.0","OS X","10_15_7","null","en-US,en;q=0.9","","null","[object Object]","","","","","","","","","","","","","",""
"","1765","audio-keyboard-response","43","191331","0.0-4.0-1.3","1","1","2023-10-30 23:52:03","ec53d80472dcc330b6ccf60011d5c0d4","171.66.13.53","Mozilla/5.0 (Macintosh; Intel Mac OS X 10_15_7) AppleWebKit/537.36 (KHTML, like Gecko) Chrome/118.0.0.0 Safari/537.36","Macintosh","Chrome","118.0.0.0","OS X","10_15_7","null","en-US,en;q=0.9","sound/720","80","","generalization","space","negative","0","700","300","q","","false","720","20","3","true",""
"","null","html-keyboard-response","44","192342","0.0-4.0-2.3","1","1","2023-10-30 23:52:03","ec53d80472dcc330b6ccf60011d5c0d4","171.66.13.53","Mozilla/5.0 (Macintosh; Intel Mac OS X 10_15_7) AppleWebKit/537.36 (KHTML, like Gecko) Chrome/118.0.0.0 Safari/537.36","Macintosh","Chrome","118.0.0.0","OS X","10_15_7","null","en-US,en;q=0.9","","null","","","","","","","","","","","","","","",""
"","null","html-keyboard-response","45","192850","0.0-4.0-0.4","1","1","2023-10-30 23:52:03","ec53d80472dcc330b6ccf60011d5c0d4","171.66.13.53","Mozilla/5.0 (Macintosh; Intel Mac OS X 10_15_7) AppleWebKit/537.36 (KHTML, like Gecko) Chrome/118.0.0.0 Safari/537.36","Macintosh","Chrome","118.0.0.0","OS X","10_15_7","null","en-US,en;q=0.9","","null","[object Object]","","","","","","","","","","","","","",""
"","27","audio-keyboard-response","46","192878","0.0-4.0-1.4","1","1","2023-10-30 23:52:03","ec53d80472dcc330b6ccf60011d5c0d4","171.66.13.53","Mozilla/5.0 (Macintosh; Intel Mac OS X 10_15_7) AppleWebKit/537.36 (KHTML, like Gecko) Chrome/118.0.0.0 Safari/537.36","Macintosh","Chrome","118.0.0.0","OS X","10_15_7","null","en-US,en;q=0.9","sound/800","80","","generalization","space","negative","0","700","300","q","","false","800","100","4","true",""
"","null","html-keyboard-response","47","193882","0.0-4.0-2.4","1","1","2023-10-30 23:52:03","ec53d80472dcc330b6ccf60011d5c0d4","171.66.13.53","Mozilla/5.0 (Macintosh; Intel Mac OS X 10_15_7) AppleWebKit/537.36 (KHTML, like Gecko) Chrome/118.0.0.0 Safari/537.36","Macintosh","Chrome","118.0.0.0","OS X","10_15_7","null","en-US,en;q=0.9","","null","","","","","","","","","","","","","","",""
"","null","html-keyboard-response","48","194386","0.0-4.0-0.5","1","1","2023-10-30 23:52:03","ec53d80472dcc330b6ccf60011d5c0d4","171.66.13.53","Mozilla/5.0 (Macintosh; Intel Mac OS X 10_15_7) AppleWebKit/537.36 (KHTML, like Gecko) Chrome/118.0.0.0 Safari/537.36","Macintosh","Chrome","118.0.0.0","OS X","10_15_7","null","en-US,en;q=0.9","","null","[object Object]","","","","","","","","","","","","","",""
"","85","audio-keyboard-response","49","194472","0.0-4.0-1.5","1","1","2023-10-30 23:52:03","ec53d80472dcc330b6ccf60011d5c0d4","171.66.13.53","Mozilla/5.0 (Macintosh; Intel Mac OS X 10_15_7) AppleWebKit/537.36 (KHTML, like Gecko) Chrome/118.0.0.0 Safari/537.36","Macintosh","Chrome","118.0.0.0","OS X","10_15_7","null","en-US,en;q=0.9","sound/700","81","","generalization","p","negative","0","700","300","q","","false","","0","5","false",""
"","null","html-keyboard-response","50","195479","0.0-4.0-2.5","1","1","2023-10-30 23:52:03","ec53d80472dcc330b6ccf60011d5c0d4","171.66.13.53","Mozilla/5.0 (Macintosh; Intel Mac OS X 10_15_7) AppleWebKit/537.36 (KHTML, like Gecko) Chrome/118.0.0.0 Safari/537.36","Macintosh","Chrome","118.0.0.0","OS X","10_15_7","null","en-US,en;q=0.9","","null","","","","","","","","","","","","","","",""
"","null","html-keyboard-response","51","195987","0.0-4.0-0.6","1","1","2023-10-30 23:52:03","ec53d80472dcc330b6ccf60011d5c0d4","171.66.13.53","Mozilla/5.0 (Macintosh; Intel Mac OS X 10_15_7) AppleWebKit/537.36 (KHTML, like Gecko) Chrome/118.0.0.0 Safari/537.36","Macintosh","Chrome","118.0.0.0","OS X","10_15_7","null","en-US,en;q=0.9","","null","[object Object]","","","","","","","","","","","","","",""
"","773","audio-keyboard-response","52","196759","0.0-4.0-1.6","1","1","2023-10-30 23:52:03","ec53d80472dcc330b6ccf60011d5c0d4","171.66.13.53","Mozilla/5.0 (Macintosh; Intel Mac OS X 10_15_7) AppleWebKit/537.36 (KHTML, like Gecko) Chrome/118.0.0.0 Safari/537.36","Macintosh","Chrome","118.0.0.0","OS X","10_15_7","null","en-US,en;q=0.9","sound/320","81","","generalization","space","positive","0","700","300","q","","false","320","20","6","true",""
"","null","html-keyboard-response","53","197767","0.0-4.0-2.6","1","1","2023-10-30 23:52:03","ec53d80472dcc330b6ccf60011d5c0d4","171.66.13.53","Mozilla/5.0 (Macintosh; Intel Mac OS X 10_15_7) AppleWebKit/537.36 (KHTML, like Gecko) Chrome/118.0.0.0 Safari/537.36","Macintosh","Chrome","118.0.0.0","OS X","10_15_7","null","en-US,en;q=0.9","","null","","","","","","","","","","","","","","",""
"","null","html-keyboard-response","54","198269","0.0-4.0-0.7","1","1","2023-10-30 23:52:03","ec53d80472dcc330b6ccf60011d5c0d4","171.66.13.53","Mozilla/5.0 (Macintosh; Intel Mac OS X 10_15_7) AppleWebKit/537.36 (KHTML, like Gecko) Chrome/118.0.0.0 Safari/537.36","Macintosh","Chrome","118.0.0.0","OS X","10_15_7","null","en-US,en;q=0.9","","null","[object Object]","","","","","","","","","","","","","",""
"","1024","audio-keyboard-response","55","199297","0.0-4.0-1.7","1","1","2023-10-30 23:52:03","ec53d80472dcc330b6ccf60011d5c0d4","171.66.13.53","Mozilla/5.0 (Macintosh; Intel Mac OS X 10_15_7) AppleWebKit/537.36 (KHTML, like Gecko) Chrome/118.0.0.0 Safari/537.36","Macintosh","Chrome","118.0.0.0","OS X","10_15_7","null","en-US,en;q=0.9","sound/600","80","","generalization","space","negative","0","700","300","q","","false","600","-100","7","true",""
"","null","html-keyboard-response","56","200303","0.0-4.0-2.7","1","1","2023-10-30 23:52:03","ec53d80472dcc330b6ccf60011d5c0d4","171.66.13.53","Mozilla/5.0 (Macintosh; Intel Mac OS X 10_15_7) AppleWebKit/537.36 (KHTML, like Gecko) Chrome/118.0.0.0 Safari/537.36","Macintosh","Chrome","118.0.0.0","OS X","10_15_7","null","en-US,en;q=0.9","","null","","","","","","","","","","","","","","",""
"","null","html-keyboard-response","57","200811","0.0-4.0-0.8","1","1","2023-10-30 23:52:03","ec53d80472dcc330b6ccf60011d5c0d4","171.66.13.53","Mozilla/5.0 (Macintosh; Intel Mac OS X 10_15_7) AppleWebKit/537.36 (KHTML, like Gecko) Chrome/118.0.0.0 Safari/537.36","Macintosh","Chrome","118.0.0.0","OS X","10_15_7","null","en-US,en;q=0.9","","null","[object Object]","","","","","","","","","","","","","",""
"","null","audio-keyboard-response","58","203314","0.0-4.0-1.8","1","1","2023-10-30 23:52:03","ec53d80472dcc330b6ccf60011d5c0d4","171.66.13.53","Mozilla/5.0 (Macintosh; Intel Mac OS X 10_15_7) AppleWebKit/537.36 (KHTML, like Gecko) Chrome/118.0.0.0 Safari/537.36","Macintosh","Chrome","118.0.0.0","OS X","10_15_7","null","en-US,en;q=0.9","sound/280","null","","generalization","space","positive","0","700","300","q","","false","280","-20","8","",""
"","null","html-keyboard-response","59","204317","0.0-4.0-2.8","1","1","2023-10-30 23:52:03","ec53d80472dcc330b6ccf60011d5c0d4","171.66.13.53","Mozilla/5.0 (Macintosh; Intel Mac OS X 10_15_7) AppleWebKit/537.36 (KHTML, like Gecko) Chrome/118.0.0.0 Safari/537.36","Macintosh","Chrome","118.0.0.0","OS X","10_15_7","null","en-US,en;q=0.9","<p style='font-weight:bold; color: red; font-size=100%'> - $0.40<br>RESPOND FASTER!</p>","null","","","","","","","","","","","","","","",""
"","null","html-keyboard-response","60","204823","0.0-4.0-0.9","1","1","2023-10-30 23:52:03","ec53d80472dcc330b6ccf60011d5c0d4","171.66.13.53","Mozilla/5.0 (Macintosh; Intel Mac OS X 10_15_7) AppleWebKit/537.36 (KHTML, like Gecko) Chrome/118.0.0.0 Safari/537.36","Macintosh","Chrome","118.0.0.0","OS X","10_15_7","null","en-US,en;q=0.9","","null","[object Object]","","","","","","","","","","","","","",""
"","null","audio-keyboard-response","61","207329","0.0-4.0-1.9","1","1","2023-10-30 23:52:03","ec53d80472dcc330b6ccf60011d5c0d4","171.66.13.53","Mozilla/5.0 (Macintosh; Intel Mac OS X 10_15_7) AppleWebKit/537.36 (KHTML, like Gecko) Chrome/118.0.0.0 Safari/537.36","Macintosh","Chrome","118.0.0.0","OS X","10_15_7","null","en-US,en;q=0.9","sound/200","null","","generalization","space","positive","0","700","300","q","","false","200","-100","9","",""
"","null","html-keyboard-response","62","208334","0.0-4.0-2.9","1","1","2023-10-30 23:52:03","ec53d80472dcc330b6ccf60011d5c0d4","171.66.13.53","Mozilla/5.0 (Macintosh; Intel Mac OS X 10_15_7) AppleWebKit/537.36 (KHTML, like Gecko) Chrome/118.0.0.0 Safari/537.36","Macintosh","Chrome","118.0.0.0","OS X","10_15_7","null","en-US,en;q=0.9","<p style='font-weight:bold; color: red; font-size=100%'> - $0.40<br>RESPOND FASTER!</p>","null","","","","","","","","","","","","","","",""
"","1762","html-keyboard-response","63","210098","0.0-5.0","1","1","2023-10-30 23:52:03","ec53d80472dcc330b6ccf60011d5c0d4","171.66.13.53","Mozilla/5.0 (Macintosh; Intel Mac OS X 10_15_7) AppleWebKit/537.36 (KHTML, like Gecko) Chrome/118.0.0.0 Safari/537.36","Macintosh","Chrome","118.0.0.0","OS X","10_15_7","null","en-US,en;q=0.9","bonus earned during this period: $0.00<br><br>Press any key to continue.","32","","","","","","","","","","","","","","",""
"[{""page_index"":0,""viewing_time"":1273}]","1273","instructions","64","211373","0.0-6.0","1","1","2023-10-30 23:52:03","ec53d80472dcc330b6ccf60011d5c0d4","171.66.13.53","Mozilla/5.0 (Macintosh; Intel Mac OS X 10_15_7) AppleWebKit/537.36 (KHTML, like Gecko) Chrome/118.0.0.0 Safari/537.36","Macintosh","Chrome","118.0.0.0","OS X","10_15_7","null","en-US,en;q=0.9","","","","","","","","","","","","","","","","",""
"","null","html-keyboard-response","65","212786","0.0-7.0-0.0","1","1","2023-10-30 23:52:03","ec53d80472dcc330b6ccf60011d5c0d4","171.66.13.53","Mozilla/5.0 (Macintosh; Intel Mac OS X 10_15_7) AppleWebKit/537.36 (KHTML, like Gecko) Chrome/118.0.0.0 Safari/537.36","Macintosh","Chrome","118.0.0.0","OS X","10_15_7","null","en-US,en;q=0.9","<div style=""font-size:120%; top:20%""></div>","null","[object Object]","","","","","","","","","","","","","",""
"","1675","audio-keyboard-response","66","215292","0.0-7.0-1.0","1","1","2023-10-30 23:52:03","ec53d80472dcc330b6ccf60011d5c0d4","171.66.13.53","Mozilla/5.0 (Macintosh; Intel Mac OS X 10_15_7) AppleWebKit/537.36 (KHTML, like Gecko) Chrome/118.0.0.0 Safari/537.36","Macintosh","Chrome","118.0.0.0","OS X","10_15_7","null","en-US,en;q=0.9","sound/700","80","","acquisition","","negative","1","700","300","q","700","false","","","","",""
"","null","html-keyboard-response","67","216405","0.0-7.0-2.0","1","1","2023-10-30 23:52:03","ec53d80472dcc330b6ccf60011d5c0d4","171.66.13.53","Mozilla/5.0 (Macintosh; Intel Mac OS X 10_15_7) AppleWebKit/537.36 (KHTML, like Gecko) Chrome/118.0.0.0 Safari/537.36","Macintosh","Chrome","118.0.0.0","OS X","10_15_7","null","en-US,en;q=0.9","<font size=""100%"" weight=bold> - $0.04</font>","null","","","","","","","","","","","","","","",""
"","null","html-keyboard-response","68","217912","0.0-7.0-0.1","1","1","2023-10-30 23:52:03","ec53d80472dcc330b6ccf60011d5c0d4","171.66.13.53","Mozilla/5.0 (Macintosh; Intel Mac OS X 10_15_7) AppleWebKit/537.36 (KHTML, like Gecko) Chrome/118.0.0.0 Safari/537.36","Macintosh","Chrome","118.0.0.0","OS X","10_15_7","null","en-US,en;q=0.9","<div style=""font-size:120%; top:20%""></div>","null","[object Object]","","","","","","","","","","","","","",""
"","null","audio-keyboard-response","69","220418","0.0-7.0-1.1","1","1","2023-10-30 23:52:03","ec53d80472dcc330b6ccf60011d5c0d4","171.66.13.53","Mozilla/5.0 (Macintosh; Intel Mac OS X 10_15_7) AppleWebKit/537.36 (KHTML, like Gecko) Chrome/118.0.0.0 Safari/537.36","Macintosh","Chrome","118.0.0.0","OS X","10_15_7","null","en-US,en;q=0.9","sound/300","null","","acquisition","q","positive","1","700","300","q","300","","","","","",""
"","null","html-keyboard-response","70","221531","0.0-7.0-2.1","1","1","2023-10-30 23:52:03","ec53d80472dcc330b6ccf60011d5c0d4","171.66.13.53","Mozilla/5.0 (Macintosh; Intel Mac OS X 10_15_7) AppleWebKit/537.36 (KHTML, like Gecko) Chrome/118.0.0.0 Safari/537.36","Macintosh","Chrome","118.0.0.0","OS X","10_15_7","null","en-US,en;q=0.9","<font size=""100%"" weight=bold> + $0.00 </font>","null","","","","","","","","","","","","","","",""
"","null","html-keyboard-response","71","223041","0.0-7.0-0.2","1","1","2023-10-30 23:52:03","ec53d80472dcc330b6ccf60011d5c0d4","171.66.13.53","Mozilla/5.0 (Macintosh; Intel Mac OS X 10_15_7) AppleWebKit/537.36 (KHTML, like Gecko) Chrome/118.0.0.0 Safari/537.36","Macintosh","Chrome","118.0.0.0","OS X","10_15_7","null","en-US,en;q=0.9","<div style=""font-size:120%; top:20%""></div>","null","[object Object]","","","","","","","","","","","","","",""
"","101","audio-keyboard-response","72","223143","0.0-7.0-1.2","1","1","2023-10-30 23:52:03","ec53d80472dcc330b6ccf60011d5c0d4","171.66.13.53","Mozilla/5.0 (Macintosh; Intel Mac OS X 10_15_7) AppleWebKit/537.36 (KHTML, like Gecko) Chrome/118.0.0.0 Safari/537.36","Macintosh","Chrome","118.0.0.0","OS X","10_15_7","null","en-US,en;q=0.9","sound/500","80","","acquisition","","neutral","1","700","300","q","500","","","","","",""
"","null","html-keyboard-response","73","224250","0.0-7.0-2.2","1","1","2023-10-30 23:52:03","ec53d80472dcc330b6ccf60011d5c0d4","171.66.13.53","Mozilla/5.0 (Macintosh; Intel Mac OS X 10_15_7) AppleWebKit/537.36 (KHTML, like Gecko) Chrome/118.0.0.0 Safari/537.36","Macintosh","Chrome","118.0.0.0","OS X","10_15_7","null","en-US,en;q=0.9","<font size=""100%""></font>","null","","","","","","","","","","","","","","",""
"","null","html-keyboard-response","74","225759","0.0-7.0-0.3","1","1","2023-10-30 23:52:03","ec53d80472dcc330b6ccf60011d5c0d4","171.66.13.53","Mozilla/5.0 (Macintosh; Intel Mac OS X 10_15_7) AppleWebKit/537.36 (KHTML, like Gecko) Chrome/118.0.0.0 Safari/537.36","Macintosh","Chrome","118.0.0.0","OS X","10_15_7","null","en-US,en;q=0.9","<div style=""font-size:120%; top:20%""></div>","null","[object Object]","","","","","","","","","","","","","",""
"","192","audio-keyboard-response","75","228266","0.0-7.0-1.3","1","1","2023-10-30 23:52:03","ec53d80472dcc330b6ccf60011d5c0d4","171.66.13.53","Mozilla/5.0 (Macintosh; Intel Mac OS X 10_15_7) AppleWebKit/537.36 (KHTML, like Gecko) Chrome/118.0.0.0 Safari/537.36","Macintosh","Chrome","118.0.0.0","OS X","10_15_7","null","en-US,en;q=0.9","sound/300","80","","acquisition","","positive","1","700","300","q","300","true","","","","",""
"","null","html-keyboard-response","76","229376","0.0-7.0-2.3","1","1","2023-10-30 23:52:03","ec53d80472dcc330b6ccf60011d5c0d4","171.66.13.53","Mozilla/5.0 (Macintosh; Intel Mac OS X 10_15_7) AppleWebKit/537.36 (KHTML, like Gecko) Chrome/118.0.0.0 Safari/537.36","Macintosh","Chrome","118.0.0.0","OS X","10_15_7","null","en-US,en;q=0.9","<font size=""100%"" weight=bold> + $0.04</font>","null","","","","","","","","","","","","","","",""
"","null","html-keyboard-response","77","230888","0.0-7.0-0.4","1","1","2023-10-30 23:52:03","ec53d80472dcc330b6ccf60011d5c0d4","171.66.13.53","Mozilla/5.0 (Macintosh; Intel Mac OS X 10_15_7) AppleWebKit/537.36 (KHTML, like Gecko) Chrome/118.0.0.0 Safari/537.36","Macintosh","Chrome","118.0.0.0","OS X","10_15_7","null","en-US,en;q=0.9","<div style=""font-size:120%; top:20%""></div>","null","[object Object]","","","","","","","","","","","","","",""
"","133","audio-keyboard-response","78","231020","0.0-7.0-1.4","1","1","2023-10-30 23:52:03","ec53d80472dcc330b6ccf60011d5c0d4","171.66.13.53","Mozilla/5.0 (Macintosh; Intel Mac OS X 10_15_7) AppleWebKit/537.36 (KHTML, like Gecko) Chrome/118.0.0.0 Safari/537.36","Macintosh","Chrome","118.0.0.0","OS X","10_15_7","null","en-US,en;q=0.9","sound/700","80","","acquisition","p","negative","1","700","300","q","700","","","","","",""
"","null","html-keyboard-response","79","232128","0.0-7.0-2.4","1","1","2023-10-30 23:52:03","ec53d80472dcc330b6ccf60011d5c0d4","171.66.13.53","Mozilla/5.0 (Macintosh; Intel Mac OS X 10_15_7) AppleWebKit/537.36 (KHTML, like Gecko) Chrome/118.0.0.0 Safari/537.36","Macintosh","Chrome","118.0.0.0","OS X","10_15_7","null","en-US,en;q=0.9","<font size=""100%"" weight=bold> - $0.04</font>","null","","","","","","","","","","","","","","",""
"","null","html-keyboard-response","80","233643","0.0-7.0-0.5","1","1","2023-10-30 23:52:03","ec53d80472dcc330b6ccf60011d5c0d4","171.66.13.53","Mozilla/5.0 (Macintosh; Intel Mac OS X 10_15_7) AppleWebKit/537.36 (KHTML, like Gecko) Chrome/118.0.0.0 Safari/537.36","Macintosh","Chrome","118.0.0.0","OS X","10_15_7","null","en-US,en;q=0.9","<div style=""font-size:120%; top:20%""></div>","null","[object Object]","","","","","","","","","","","","","",""
"","1216","audio-keyboard-response","81","234861","0.0-7.0-1.5","1","1","2023-10-30 23:52:03","ec53d80472dcc330b6ccf60011d5c0d4","171.66.13.53","Mozilla/5.0 (Macintosh; Intel Mac OS X 10_15_7) AppleWebKit/537.36 (KHTML, like Gecko) Chrome/118.0.0.0 Safari/537.36","Macintosh","Chrome","118.0.0.0","OS X","10_15_7","null","en-US,en;q=0.9","sound/700","81","","acquisition","p","negative","1","700","300","q","700","","","","","",""
"","null","html-keyboard-response","82","235975","0.0-7.0-2.5","1","1","2023-10-30 23:52:03","ec53d80472dcc330b6ccf60011d5c0d4","171.66.13.53","Mozilla/5.0 (Macintosh; Intel Mac OS X 10_15_7) AppleWebKit/537.36 (KHTML, like Gecko) Chrome/118.0.0.0 Safari/537.36","Macintosh","Chrome","118.0.0.0","OS X","10_15_7","null","en-US,en;q=0.9","<font size=""100%"" weight=bold> - $0.04</font>","null","","","","","","","","","","","","","","",""
"","null","html-keyboard-response","83","237487","0.0-7.0-0.6","1","1","2023-10-30 23:52:03","ec53d80472dcc330b6ccf60011d5c0d4","171.66.13.53","Mozilla/5.0 (Macintosh; Intel Mac OS X 10_15_7) AppleWebKit/537.36 (KHTML, like Gecko) Chrome/118.0.0.0 Safari/537.36","Macintosh","Chrome","118.0.0.0","OS X","10_15_7","null","en-US,en;q=0.9","<div style=""font-size:120%; top:20%""></div>","null","[object Object]","","","","","","","","","","","","","",""
"","43","audio-keyboard-response","84","237537","0.0-7.0-1.6","1","1","2023-10-30 23:52:03","ec53d80472dcc330b6ccf60011d5c0d4","171.66.13.53","Mozilla/5.0 (Macintosh; Intel Mac OS X 10_15_7) AppleWebKit/537.36 (KHTML, like Gecko) Chrome/118.0.0.0 Safari/537.36","Macintosh","Chrome","118.0.0.0","OS X","10_15_7","null","en-US,en;q=0.9","sound/500","80","","acquisition","","neutral","1","700","300","q","500","","","","","",""
"","null","html-keyboard-response","85","238642","0.0-7.0-2.6","1","1","2023-10-30 23:52:03","ec53d80472dcc330b6ccf60011d5c0d4","171.66.13.53","Mozilla/5.0 (Macintosh; Intel Mac OS X 10_15_7) AppleWebKit/537.36 (KHTML, like Gecko) Chrome/118.0.0.0 Safari/537.36","Macintosh","Chrome","118.0.0.0","OS X","10_15_7","null","en-US,en;q=0.9","<font size=""100%""></font>","null","","","","","","","","","","","","","","",""
"","null","html-keyboard-response","86","240153","0.0-7.0-0.7","1","1","2023-10-30 23:52:03","ec53d80472dcc330b6ccf60011d5c0d4","171.66.13.53","Mozilla/5.0 (Macintosh; Intel Mac OS X 10_15_7) AppleWebKit/537.36 (KHTML, like Gecko) Chrome/118.0.0.0 Safari/537.36","Macintosh","Chrome","118.0.0.0","OS X","10_15_7","null","en-US,en;q=0.9","<div style=""font-size:120%; top:20%""></div>","null","[object Object]","","","","","","","","","","","","","",""
"","0","audio-keyboard-response","87","240159","0.0-7.0-1.7","1","1","2023-10-30 23:52:03","ec53d80472dcc330b6ccf60011d5c0d4","171.66.13.53","Mozilla/5.0 (Macintosh; Intel Mac OS X 10_15_7) AppleWebKit/537.36 (KHTML, like Gecko) Chrome/118.0.0.0 Safari/537.36","Macintosh","Chrome","118.0.0.0","OS X","10_15_7","null","en-US,en;q=0.9","sound/300","80","","acquisition","q","positive","1","700","300","q","300","","","","","",""
"","null","html-keyboard-response","88","241266","0.0-7.0-2.7","1","1","2023-10-30 23:52:03","ec53d80472dcc330b6ccf60011d5c0d4","171.66.13.53","Mozilla/5.0 (Macintosh; Intel Mac OS X 10_15_7) AppleWebKit/537.36 (KHTML, like Gecko) Chrome/118.0.0.0 Safari/537.36","Macintosh","Chrome","118.0.0.0","OS X","10_15_7","null","en-US,en;q=0.9","<font size=""100%"" weight=bold> + $0.00 </font>","null","","","","","","","","","","","","","","",""
"","null","html-keyboard-response","89","242776","0.0-7.0-0.8","1","1","2023-10-30 23:52:03","ec53d80472dcc330b6ccf60011d5c0d4","171.66.13.53","Mozilla/5.0 (Macintosh; Intel Mac OS X 10_15_7) AppleWebKit/537.36 (KHTML, like Gecko) Chrome/118.0.0.0 Safari/537.36","Macintosh","Chrome","118.0.0.0","OS X","10_15_7","null","en-US,en;q=0.9","<div style=""font-size:120%; top:20%""></div>","null","[object Object]","","","","","","","","","","","","","",""
"","480","audio-keyboard-response","90","245287","0.0-7.0-1.8","1","1","2023-10-30 23:52:03","ec53d80472dcc330b6ccf60011d5c0d4","171.66.13.53","Mozilla/5.0 (Macintosh; Intel Mac OS X 10_15_7) AppleWebKit/537.36 (KHTML, like Gecko) Chrome/118.0.0.0 Safari/537.36","Macintosh","Chrome","118.0.0.0","OS X","10_15_7","null","en-US,en;q=0.9","sound/300","80","","acquisition","","positive","1","700","300","q","300","true","","","","",""
"","null","html-keyboard-response","91","246399","0.0-7.0-2.8","1","1","2023-10-30 23:52:03","ec53d80472dcc330b6ccf60011d5c0d4","171.66.13.53","Mozilla/5.0 (Macintosh; Intel Mac OS X 10_15_7) AppleWebKit/537.36 (KHTML, like Gecko) Chrome/118.0.0.0 Safari/537.36","Macintosh","Chrome","118.0.0.0","OS X","10_15_7","null","en-US,en;q=0.9","<font size=""100%"" weight=bold> + $0.04</font>","null","","","","","","","","","","","","","","",""
"","null","html-keyboard-response","92","247912","0.0-7.0-0.9","1","1","2023-10-30 23:52:03","ec53d80472dcc330b6ccf60011d5c0d4","171.66.13.53","Mozilla/5.0 (Macintosh; Intel Mac OS X 10_15_7) AppleWebKit/537.36 (KHTML, like Gecko) Chrome/118.0.0.0 Safari/537.36","Macintosh","Chrome","118.0.0.0","OS X","10_15_7","null","en-US,en;q=0.9","<div style=""font-size:120%; top:20%""></div>","null","[object Object]","","","","","","","","","","","","","",""
"","544","audio-keyboard-response","93","250419","0.0-7.0-1.9","1","1","2023-10-30 23:52:03","ec53d80472dcc330b6ccf60011d5c0d4","171.66.13.53","Mozilla/5.0 (Macintosh; Intel Mac OS X 10_15_7) AppleWebKit/537.36 (KHTML, like Gecko) Chrome/118.0.0.0 Safari/537.36","Macintosh","Chrome","118.0.0.0","OS X","10_15_7","null","en-US,en;q=0.9","sound/700","80","","acquisition","","negative","1","700","300","q","700","false","","","","",""
"","null","html-keyboard-response","94","251530","0.0-7.0-2.9","1","1","2023-10-30 23:52:03","ec53d80472dcc330b6ccf60011d5c0d4","171.66.13.53","Mozilla/5.0 (Macintosh; Intel Mac OS X 10_15_7) AppleWebKit/537.36 (KHTML, like Gecko) Chrome/118.0.0.0 Safari/537.36","Macintosh","Chrome","118.0.0.0","OS X","10_15_7","null","en-US,en;q=0.9","<font size=""100%"" weight=bold> - $0.04</font>","null","","","","","","","","","","","","","","",""
"","2026","html-keyboard-response","95","254067","0.0-8.0","1","1","2023-10-30 23:52:03","ec53d80472dcc330b6ccf60011d5c0d4","171.66.13.53","Mozilla/5.0 (Macintosh; Intel Mac OS X 10_15_7) AppleWebKit/537.36 (KHTML, like Gecko) Chrome/118.0.0.0 Safari/537.36","Macintosh","Chrome","118.0.0.0","OS X","10_15_7","null","en-US,en;q=0.9","The total bonus amount of bonus you earned in this last period was $0.00.<br> Press any key to continue to the next step.","32","","","","","","","","","","","","","","",""
"[{""page_index"":0,""viewing_time"":1855}]","1855","instructions","96","255924","0.0-9.0","1","1","2023-10-30 23:52:03","ec53d80472dcc330b6ccf60011d5c0d4","171.66.13.53","Mozilla/5.0 (Macintosh; Intel Mac OS X 10_15_7) AppleWebKit/537.36 (KHTML, like Gecko) Chrome/118.0.0.0 Safari/537.36","Macintosh","Chrome","118.0.0.0","OS X","10_15_7","null","en-US,en;q=0.9","","","","","","","","","","","","","","","","",""
"","null","html-keyboard-response","97","256833","0.0-10.0-0.0","1","1","2023-10-30 23:52:03","ec53d80472dcc330b6ccf60011d5c0d4","171.66.13.53","Mozilla/5.0 (Macintosh; Intel Mac OS X 10_15_7) AppleWebKit/537.36 (KHTML, like Gecko) Chrome/118.0.0.0 Safari/537.36","Macintosh","Chrome","118.0.0.0","OS X","10_15_7","null","en-US,en;q=0.9","","null","[object Object]","","","","","","","","","","","","","",""
"","1099","audio-keyboard-response","98","257938","0.0-10.0-1.0","1","1","2023-10-30 23:52:03","ec53d80472dcc330b6ccf60011d5c0d4","171.66.13.53","Mozilla/5.0 (Macintosh; Intel Mac OS X 10_15_7) AppleWebKit/537.36 (KHTML, like Gecko) Chrome/118.0.0.0 Safari/537.36","Macintosh","Chrome","118.0.0.0","OS X","10_15_7","null","en-US,en;q=0.9","sound/800","80","","generalization","space","negative","1","700","300","q","","false","800","100","10","true",""
"","null","html-keyboard-response","99","258946","0.0-10.0-2.0","1","1","2023-10-30 23:52:03","ec53d80472dcc330b6ccf60011d5c0d4","171.66.13.53","Mozilla/5.0 (Macintosh; Intel Mac OS X 10_15_7) AppleWebKit/537.36 (KHTML, like Gecko) Chrome/118.0.0.0 Safari/537.36","Macintosh","Chrome","118.0.0.0","OS X","10_15_7","null","en-US,en;q=0.9","","null","","","","","","","","","","","","","","",""
"","null","html-keyboard-response","100","259450","0.0-10.0-0.1","1","1","2023-10-30 23:52:03","ec53d80472dcc330b6ccf60011d5c0d4","171.66.13.53","Mozilla/5.0 (Macintosh; Intel Mac OS X 10_15_7) AppleWebKit/537.36 (KHTML, like Gecko) Chrome/118.0.0.0 Safari/537.36","Macintosh","Chrome","118.0.0.0","OS X","10_15_7","null","en-US,en;q=0.9","","null","[object Object]","","","","","","","","","","","","","",""
"","389","audio-keyboard-response","101","259843","0.0-10.0-1.1","1","1","2023-10-30 23:52:03","ec53d80472dcc330b6ccf60011d5c0d4","171.66.13.53","Mozilla/5.0 (Macintosh; Intel Mac OS X 10_15_7) AppleWebKit/537.36 (KHTML, like Gecko) Chrome/118.0.0.0 Safari/537.36","Macintosh","Chrome","118.0.0.0","OS X","10_15_7","null","en-US,en;q=0.9","sound/720","80","","generalization","space","negative","1","700","300","q","","false","720","20","11","true",""
"","null","html-keyboard-response","102","260849","0.0-10.0-2.1","1","1","2023-10-30 23:52:03","ec53d80472dcc330b6ccf60011d5c0d4","171.66.13.53","Mozilla/5.0 (Macintosh; Intel Mac OS X 10_15_7) AppleWebKit/537.36 (KHTML, like Gecko) Chrome/118.0.0.0 Safari/537.36","Macintosh","Chrome","118.0.0.0","OS X","10_15_7","null","en-US,en;q=0.9","","null","","","","","","","","","","","","","","",""
"","null","html-keyboard-response","103","261355","0.0-10.0-0.2","1","1","2023-10-30 23:52:03","ec53d80472dcc330b6ccf60011d5c0d4","171.66.13.53","Mozilla/5.0 (Macintosh; Intel Mac OS X 10_15_7) AppleWebKit/537.36 (KHTML, like Gecko) Chrome/118.0.0.0 Safari/537.36","Macintosh","Chrome","118.0.0.0","OS X","10_15_7","null","en-US,en;q=0.9","","null","[object Object]","","","","","","","","","","","","","",""
"","43","audio-keyboard-response","104","261401","0.0-10.0-1.2","1","1","2023-10-30 23:52:03","ec53d80472dcc330b6ccf60011d5c0d4","171.66.13.53","Mozilla/5.0 (Macintosh; Intel Mac OS X 10_15_7) AppleWebKit/537.36 (KHTML, like Gecko) Chrome/118.0.0.0 Safari/537.36","Macintosh","Chrome","118.0.0.0","OS X","10_15_7","null","en-US,en;q=0.9","sound/700","80","","generalization","p","negative","1","700","300","q","","true","","0","12","true",""
"","null","html-keyboard-response","105","262405","0.0-10.0-2.2","1","1","2023-10-30 23:52:03","ec53d80472dcc330b6ccf60011d5c0d4","171.66.13.53","Mozilla/5.0 (Macintosh; Intel Mac OS X 10_15_7) AppleWebKit/537.36 (KHTML, like Gecko) Chrome/118.0.0.0 Safari/537.36","Macintosh","Chrome","118.0.0.0","OS X","10_15_7","null","en-US,en;q=0.9","","null","","","","","","","","","","","","","","",""
"","null","html-keyboard-response","106","262914","0.0-10.0-0.3","1","1","2023-10-30 23:52:03","ec53d80472dcc330b6ccf60011d5c0d4","171.66.13.53","Mozilla/5.0 (Macintosh; Intel Mac OS X 10_15_7) AppleWebKit/537.36 (KHTML, like Gecko) Chrome/118.0.0.0 Safari/537.36","Macintosh","Chrome","118.0.0.0","OS X","10_15_7","null","en-US,en;q=0.9","","null","[object Object]","","","","","","","","","","","","","",""
"","475","audio-keyboard-response","107","263390","0.0-10.0-1.3","1","1","2023-10-30 23:52:03","ec53d80472dcc330b6ccf60011d5c0d4","171.66.13.53","Mozilla/5.0 (Macintosh; Intel Mac OS X 10_15_7) AppleWebKit/537.36 (KHTML, like Gecko) Chrome/118.0.0.0 Safari/537.36","Macintosh","Chrome","118.0.0.0","OS X","10_15_7","null","en-US,en;q=0.9","sound/320","80","","generalization","space","positive","1","700","300","q","","false","320","20","13","false",""
"","null","html-keyboard-response","108","264400","0.0-10.0-2.3","1","1","2023-10-30 23:52:03","ec53d80472dcc330b6ccf60011d5c0d4","171.66.13.53","Mozilla/5.0 (Macintosh; Intel Mac OS X 10_15_7) AppleWebKit/537.36 (KHTML, like Gecko) Chrome/118.0.0.0 Safari/537.36","Macintosh","Chrome","118.0.0.0","OS X","10_15_7","null","en-US,en;q=0.9","","null","","","","","","","","","","","","","","",""
"","null","html-keyboard-response","109","264906","0.0-10.0-0.4","1","1","2023-10-30 23:52:03","ec53d80472dcc330b6ccf60011d5c0d4","171.66.13.53","Mozilla/5.0 (Macintosh; Intel Mac OS X 10_15_7) AppleWebKit/537.36 (KHTML, like Gecko) Chrome/118.0.0.0 Safari/537.36","Macintosh","Chrome","118.0.0.0","OS X","10_15_7","null","en-US,en;q=0.9","","null","[object Object]","","","","","","","","","","","","","",""
"","512","audio-keyboard-response","110","265422","0.0-10.0-1.4","1","1","2023-10-30 23:52:03","ec53d80472dcc330b6ccf60011d5c0d4","171.66.13.53","Mozilla/5.0 (Macintosh; Intel Mac OS X 10_15_7) AppleWebKit/537.36 (KHTML, like Gecko) Chrome/118.0.0.0 Safari/537.36","Macintosh","Chrome","118.0.0.0","OS X","10_15_7","null","en-US,en;q=0.9","sound/680","81","","generalization","space","negative","1","700","300","q","","false","680","-20","14","false",""
"","null","html-keyboard-response","111","266429","0.0-10.0-2.4","1","1","2023-10-30 23:52:03","ec53d80472dcc330b6ccf60011d5c0d4","171.66.13.53","Mozilla/5.0 (Macintosh; Intel Mac OS X 10_15_7) AppleWebKit/537.36 (KHTML, like Gecko) Chrome/118.0.0.0 Safari/537.36","Macintosh","Chrome","118.0.0.0","OS X","10_15_7","null","en-US,en;q=0.9","","null","","","","","","","","","","","","","","",""
"","null","html-keyboard-response","112","266935","0.0-10.0-0.5","1","1","2023-10-30 23:52:03","ec53d80472dcc330b6ccf60011d5c0d4","171.66.13.53","Mozilla/5.0 (Macintosh; Intel Mac OS X 10_15_7) AppleWebKit/537.36 (KHTML, like Gecko) Chrome/118.0.0.0 Safari/537.36","Macintosh","Chrome","118.0.0.0","OS X","10_15_7","null","en-US,en;q=0.9","","null","[object Object]","","","","","","","","","","","","","",""
"","640","audio-keyboard-response","113","267576","0.0-10.0-1.5","1","1","2023-10-30 23:52:03","ec53d80472dcc330b6ccf60011d5c0d4","171.66.13.53","Mozilla/5.0 (Macintosh; Intel Mac OS X 10_15_7) AppleWebKit/537.36 (KHTML, like Gecko) Chrome/118.0.0.0 Safari/537.36","Macintosh","Chrome","118.0.0.0","OS X","10_15_7","null","en-US,en;q=0.9","sound/200","80","","generalization","space","positive","1","700","300","q","","false","200","-100","15","false",""
"","null","html-keyboard-response","114","268580","0.0-10.0-2.5","1","1","2023-10-30 23:52:03","ec53d80472dcc330b6ccf60011d5c0d4","171.66.13.53","Mozilla/5.0 (Macintosh; Intel Mac OS X 10_15_7) AppleWebKit/537.36 (KHTML, like Gecko) Chrome/118.0.0.0 Safari/537.36","Macintosh","Chrome","118.0.0.0","OS X","10_15_7","null","en-US,en;q=0.9","","null","","","","","","","","","","","","","","",""
"","null","html-keyboard-response","115","269088","0.0-10.0-0.6","1","1","2023-10-30 23:52:03","ec53d80472dcc330b6ccf60011d5c0d4","171.66.13.53","Mozilla/5.0 (Macintosh; Intel Mac OS X 10_15_7) AppleWebKit/537.36 (KHTML, like Gecko) Chrome/118.0.0.0 Safari/537.36","Macintosh","Chrome","118.0.0.0","OS X","10_15_7","null","en-US,en;q=0.9","","null","[object Object]","","","","","","","","","","","","","",""
"","null","audio-keyboard-response","116","271599","0.0-10.0-1.6","1","1","2023-10-30 23:52:03","ec53d80472dcc330b6ccf60011d5c0d4","171.66.13.53","Mozilla/5.0 (Macintosh; Intel Mac OS X 10_15_7) AppleWebKit/537.36 (KHTML, like Gecko) Chrome/118.0.0.0 Safari/537.36","Macintosh","Chrome","118.0.0.0","OS X","10_15_7","null","en-US,en;q=0.9","sound/600","null","","generalization","space","negative","1","700","300","q","","false","600","-100","16","",""
"","null","html-keyboard-response","117","272610","0.0-10.0-2.6","1","1","2023-10-30 23:52:03","ec53d80472dcc330b6ccf60011d5c0d4","171.66.13.53","Mozilla/5.0 (Macintosh; Intel Mac OS X 10_15_7) AppleWebKit/537.36 (KHTML, like Gecko) Chrome/118.0.0.0 Safari/537.36","Macintosh","Chrome","118.0.0.0","OS X","10_15_7","null","en-US,en;q=0.9","<p style='font-weight:bold; color: red; font-size=100%'> - $0.40<br>RESPOND FASTER!</p>","null","","","","","","","","","","","","","","",""
"","null","html-keyboard-response","118","273118","0.0-10.0-0.7","1","1","2023-10-30 23:52:03","ec53d80472dcc330b6ccf60011d5c0d4","171.66.13.53","Mozilla/5.0 (Macintosh; Intel Mac OS X 10_15_7) AppleWebKit/537.36 (KHTML, like Gecko) Chrome/118.0.0.0 Safari/537.36","Macintosh","Chrome","118.0.0.0","OS X","10_15_7","null","en-US,en;q=0.9","","null","[object Object]","","","","","","","","","","","","","",""
"","555","audio-keyboard-response","119","273680","0.0-10.0-1.7","1","1","2023-10-30 23:52:03","ec53d80472dcc330b6ccf60011d5c0d4","171.66.13.53","Mozilla/5.0 (Macintosh; Intel Mac OS X 10_15_7) AppleWebKit/537.36 (KHTML, like Gecko) Chrome/118.0.0.0 Safari/537.36","Macintosh","Chrome","118.0.0.0","OS X","10_15_7","null","en-US,en;q=0.9","sound/300","80","","generalization","q","positive","1","700","300","q","","false","","0","17","false",""
"","null","html-keyboard-response","120","274688","0.0-10.0-2.7","1","1","2023-10-30 23:52:03","ec53d80472dcc330b6ccf60011d5c0d4","171.66.13.53","Mozilla/5.0 (Macintosh; Intel Mac OS X 10_15_7) AppleWebKit/537.36 (KHTML, like Gecko) Chrome/118.0.0.0 Safari/537.36","Macintosh","Chrome","118.0.0.0","OS X","10_15_7","null","en-US,en;q=0.9","","null","","","","","","","","","","","","","","",""
"","null","html-keyboard-response","121","275194","0.0-10.0-0.8","1","1","2023-10-30 23:52:03","ec53d80472dcc330b6ccf60011d5c0d4","171.66.13.53","Mozilla/5.0 (Macintosh; Intel Mac OS X 10_15_7) AppleWebKit/537.36 (KHTML, like Gecko) Chrome/118.0.0.0 Safari/537.36","Macintosh","Chrome","118.0.0.0","OS X","10_15_7","null","en-US,en;q=0.9","","null","[object Object]","","","","","","","","","","","","","",""
"","149","audio-keyboard-response","122","275350","0.0-10.0-1.8","1","1","2023-10-30 23:52:03","ec53d80472dcc330b6ccf60011d5c0d4","171.66.13.53","Mozilla/5.0 (Macintosh; Intel Mac OS X 10_15_7) AppleWebKit/537.36 (KHTML, like Gecko) Chrome/118.0.0.0 Safari/537.36","Macintosh","Chrome","118.0.0.0","OS X","10_15_7","null","en-US,en;q=0.9","sound/280","80","","generalization","space","positive","1","700","300","q","","false","280","-20","18","false",""
"","null","html-keyboard-response","123","276358","0.0-10.0-2.8","1","1","2023-10-30 23:52:03","ec53d80472dcc330b6ccf60011d5c0d4","171.66.13.53","Mozilla/5.0 (Macintosh; Intel Mac OS X 10_15_7) AppleWebKit/537.36 (KHTML, like Gecko) Chrome/118.0.0.0 Safari/537.36","Macintosh","Chrome","118.0.0.0","OS X","10_15_7","null","en-US,en;q=0.9","","null","","","","","","","","","","","","","","",""
"","null","html-keyboard-response","124","276870","0.0-10.0-0.9","1","1","2023-10-30 23:52:03","ec53d80472dcc330b6ccf60011d5c0d4","171.66.13.53","Mozilla/5.0 (Macintosh; Intel Mac OS X 10_15_7) AppleWebKit/537.36 (KHTML, like Gecko) Chrome/118.0.0.0 Safari/537.36","Macintosh","Chrome","118.0.0.0","OS X","10_15_7","null","en-US,en;q=0.9","","null","[object Object]","","","","","","","","","","","","","",""
"","64","audio-keyboard-response","125","276936","0.0-10.0-1.9","1","1","2023-10-30 23:52:03","ec53d80472dcc330b6ccf60011d5c0d4","171.66.13.53","Mozilla/5.0 (Macintosh; Intel Mac OS X 10_15_7) AppleWebKit/537.36 (KHTML, like Gecko) Chrome/118.0.0.0 Safari/537.36","Macintosh","Chrome","118.0.0.0","OS X","10_15_7","null","en-US,en;q=0.9","sound/400","81","","generalization","space","positive","1","700","300","q","","false","400","100","19","true",""
"","null","html-keyboard-response","126","277944","0.0-10.0-2.9","1","1","2023-10-30 23:52:03","ec53d80472dcc330b6ccf60011d5c0d4","171.66.13.53","Mozilla/5.0 (Macintosh; Intel Mac OS X 10_15_7) AppleWebKit/537.36 (KHTML, like Gecko) Chrome/118.0.0.0 Safari/537.36","Macintosh","Chrome","118.0.0.0","OS X","10_15_7","null","en-US,en;q=0.9","","null","","","","","","","","","","","","","","",""
"","1325","html-keyboard-response","127","279272","0.0-11.0","1","1","2023-10-30 23:52:03","ec53d80472dcc330b6ccf60011d5c0d4","171.66.13.53","Mozilla/5.0 (Macintosh; Intel Mac OS X 10_15_7) AppleWebKit/537.36 (KHTML, like Gecko) Chrome/118.0.0.0 Safari/537.36","Macintosh","Chrome","118.0.0.0","OS X","10_15_7","null","en-US,en;q=0.9","bonus earned during this period: $0.04<br><br>Press any key to continue.","32","","","","","","","","","","","","","","",""
"[{""page_index"":0,""viewing_time"":1797}]","1798","instructions","128","281072","0.0-12.0","1","1","2023-10-30 23:52:03","ec53d80472dcc330b6ccf60011d5c0d4","171.66.13.53","Mozilla/5.0 (Macintosh; Intel Mac OS X 10_15_7) AppleWebKit/537.36 (KHTML, like Gecko) Chrome/118.0.0.0 Safari/537.36","Macintosh","Chrome","118.0.0.0","OS X","10_15_7","null","en-US,en;q=0.9","","","","","","","","","","","","","","","","",""
"","null","html-keyboard-response","129","282488","0.0-13.0-0.0","1","1","2023-10-30 23:52:03","ec53d80472dcc330b6ccf60011d5c0d4","171.66.13.53","Mozilla/5.0 (Macintosh; Intel Mac OS X 10_15_7) AppleWebKit/537.36 (KHTML, like Gecko) Chrome/118.0.0.0 Safari/537.36","Macintosh","Chrome","118.0.0.0","OS X","10_15_7","null","en-US,en;q=0.9","<div style=""font-size:120%; top:20%""></div>","null","[object Object]","","","","","","","","","","","","","",""
"","891","audio-keyboard-response","130","284997","0.0-13.0-1.0","1","1","2023-10-30 23:52:03","ec53d80472dcc330b6ccf60011d5c0d4","171.66.13.53","Mozilla/5.0 (Macintosh; Intel Mac OS X 10_15_7) AppleWebKit/537.36 (KHTML, like Gecko) Chrome/118.0.0.0 Safari/537.36","Macintosh","Chrome","118.0.0.0","OS X","10_15_7","null","en-US,en;q=0.9","sound/700","80","","acquisition","","negative","2","700","300","q","700","false","","","","",""
"","null","html-keyboard-response","131","286112","0.0-13.0-2.0","1","1","2023-10-30 23:52:03","ec53d80472dcc330b6ccf60011d5c0d4","171.66.13.53","Mozilla/5.0 (Macintosh; Intel Mac OS X 10_15_7) AppleWebKit/537.36 (KHTML, like Gecko) Chrome/118.0.0.0 Safari/537.36","Macintosh","Chrome","118.0.0.0","OS X","10_15_7","null","en-US,en;q=0.9","<font size=""100%"" weight=bold> - $0.04</font>","null","","","","","","","","","","","","","","",""
"","null","html-keyboard-response","132","287624","0.0-13.0-0.1","1","1","2023-10-30 23:52:03","ec53d80472dcc330b6ccf60011d5c0d4","171.66.13.53","Mozilla/5.0 (Macintosh; Intel Mac OS X 10_15_7) AppleWebKit/537.36 (KHTML, like Gecko) Chrome/118.0.0.0 Safari/537.36","Macintosh","Chrome","118.0.0.0","OS X","10_15_7","null","en-US,en;q=0.9","<div style=""font-size:120%; top:20%""></div>","null","[object Object]","","","","","","","","","","","","","",""
"","629","audio-keyboard-response","133","288256","0.0-13.0-1.1","1","1","2023-10-30 23:52:03","ec53d80472dcc330b6ccf60011d5c0d4","171.66.13.53","Mozilla/5.0 (Macintosh; Intel Mac OS X 10_15_7) AppleWebKit/537.36 (KHTML, like Gecko) Chrome/118.0.0.0 Safari/537.36","Macintosh","Chrome","118.0.0.0","OS X","10_15_7","null","en-US,en;q=0.9","sound/300","80","","acquisition","q","positive","2","700","300","q","300","","","","","",""
"","null","html-keyboard-response","134","289367","0.0-13.0-2.1","1","1","2023-10-30 23:52:03","ec53d80472dcc330b6ccf60011d5c0d4","171.66.13.53","Mozilla/5.0 (Macintosh; Intel Mac OS X 10_15_7) AppleWebKit/537.36 (KHTML, like Gecko) Chrome/118.0.0.0 Safari/537.36","Macintosh","Chrome","118.0.0.0","OS X","10_15_7","null","en-US,en;q=0.9","<font size=""100%"" weight=bold> + $0.00 </font>","null","","","","","","","","","","","","","","",""
"","null","html-keyboard-response","135","290873","0.0-13.0-0.2","1","1","2023-10-30 23:52:03","ec53d80472dcc330b6ccf60011d5c0d4","171.66.13.53","Mozilla/5.0 (Macintosh; Intel Mac OS X 10_15_7) AppleWebKit/537.36 (KHTML, like Gecko) Chrome/118.0.0.0 Safari/537.36","Macintosh","Chrome","118.0.0.0","OS X","10_15_7","null","en-US,en;q=0.9","<div style=""font-size:120%; top:20%""></div>","null","[object Object]","","","","","","","","","","","","","",""
"","187","audio-keyboard-response","136","293379","0.0-13.0-1.2","1","1","2023-10-30 23:52:03","ec53d80472dcc330b6ccf60011d5c0d4","171.66.13.53","Mozilla/5.0 (Macintosh; Intel Mac OS X 10_15_7) AppleWebKit/537.36 (KHTML, like Gecko) Chrome/118.0.0.0 Safari/537.36","Macintosh","Chrome","118.0.0.0","OS X","10_15_7","null","en-US,en;q=0.9","sound/300","80","","acquisition","","positive","2","700","300","q","300","true","","","","",""
"","null","html-keyboard-response","137","294489","0.0-13.0-2.2","1","1","2023-10-30 23:52:03","ec53d80472dcc330b6ccf60011d5c0d4","171.66.13.53","Mozilla/5.0 (Macintosh; Intel Mac OS X 10_15_7) AppleWebKit/537.36 (KHTML, like Gecko) Chrome/118.0.0.0 Safari/537.36","Macintosh","Chrome","118.0.0.0","OS X","10_15_7","null","en-US,en;q=0.9","<font size=""100%"" weight=bold> + $0.04</font>","null","","","","","","","","","","","","","","",""
"","null","html-keyboard-response","138","296007","0.0-13.0-0.3","1","1","2023-10-30 23:52:03","ec53d80472dcc330b6ccf60011d5c0d4","171.66.13.53","Mozilla/5.0 (Macintosh; Intel Mac OS X 10_15_7) AppleWebKit/537.36 (KHTML, like Gecko) Chrome/118.0.0.0 Safari/537.36","Macintosh","Chrome","118.0.0.0","OS X","10_15_7","null","en-US,en;q=0.9","<div style=""font-size:120%; top:20%""></div>","null","[object Object]","","","","","","","","","","","","","",""
"","277","audio-keyboard-response","139","296290","0.0-13.0-1.3","1","1","2023-10-30 23:52:03","ec53d80472dcc330b6ccf60011d5c0d4","171.66.13.53","Mozilla/5.0 (Macintosh; Intel Mac OS X 10_15_7) AppleWebKit/537.36 (KHTML, like Gecko) Chrome/118.0.0.0 Safari/537.36","Macintosh","Chrome","118.0.0.0","OS X","10_15_7","null","en-US,en;q=0.9","sound/500","81","","acquisition","","neutral","2","700","300","q","500","","","","","",""
"","null","html-keyboard-response","140","297400","0.0-13.0-2.3","1","1","2023-10-30 23:52:03","ec53d80472dcc330b6ccf60011d5c0d4","171.66.13.53","Mozilla/5.0 (Macintosh; Intel Mac OS X 10_15_7) AppleWebKit/537.36 (KHTML, like Gecko) Chrome/118.0.0.0 Safari/537.36","Macintosh","Chrome","118.0.0.0","OS X","10_15_7","null","en-US,en;q=0.9","<font size=""100%""></font>","null","","","","","","","","","","","","","","",""
"","null","html-keyboard-response","141","298910","0.0-13.0-0.4","1","1","2023-10-30 23:52:03","ec53d80472dcc330b6ccf60011d5c0d4","171.66.13.53","Mozilla/5.0 (Macintosh; Intel Mac OS X 10_15_7) AppleWebKit/537.36 (KHTML, like Gecko) Chrome/118.0.0.0 Safari/537.36","Macintosh","Chrome","118.0.0.0","OS X","10_15_7","null","en-US,en;q=0.9","<div style=""font-size:120%; top:20%""></div>","null","[object Object]","","","","","","","","","","","","","",""
"","21","audio-keyboard-response","142","298940","0.0-13.0-1.4","1","1","2023-10-30 23:52:03","ec53d80472dcc330b6ccf60011d5c0d4","171.66.13.53","Mozilla/5.0 (Macintosh; Intel Mac OS X 10_15_7) AppleWebKit/537.36 (KHTML, like Gecko) Chrome/118.0.0.0 Safari/537.36","Macintosh","Chrome","118.0.0.0","OS X","10_15_7","null","en-US,en;q=0.9","sound/700","81","","acquisition","p","negative","2","700","300","q","700","","","","","",""
"","null","html-keyboard-response","143","300051","0.0-13.0-2.4","1","1","2023-10-30 23:52:03","ec53d80472dcc330b6ccf60011d5c0d4","171.66.13.53","Mozilla/5.0 (Macintosh; Intel Mac OS X 10_15_7) AppleWebKit/537.36 (KHTML, like Gecko) Chrome/118.0.0.0 Safari/537.36","Macintosh","Chrome","118.0.0.0","OS X","10_15_7","null","en-US,en;q=0.9","<font size=""100%"" weight=bold> - $0.04</font>","null","","","","","","","","","","","","","","",""
"","null","html-keyboard-response","144","301562","0.0-13.0-0.5","1","1","2023-10-30 23:52:03","ec53d80472dcc330b6ccf60011d5c0d4","171.66.13.53","Mozilla/5.0 (Macintosh; Intel Mac OS X 10_15_7) AppleWebKit/537.36 (KHTML, like Gecko) Chrome/118.0.0.0 Safari/537.36","Macintosh","Chrome","118.0.0.0","OS X","10_15_7","null","en-US,en;q=0.9","<div style=""font-size:120%; top:20%""></div>","null","[object Object]","","","","","","","","","","","","","",""
"","1952","audio-keyboard-response","145","304071","0.0-13.0-1.5","1","1","2023-10-30 23:52:03","ec53d80472dcc330b6ccf60011d5c0d4","171.66.13.53","Mozilla/5.0 (Macintosh; Intel Mac OS X 10_15_7) AppleWebKit/537.36 (KHTML, like Gecko) Chrome/118.0.0.0 Safari/537.36","Macintosh","Chrome","118.0.0.0","OS X","10_15_7","null","en-US,en;q=0.9","sound/700","81","","acquisition","","negative","2","700","300","q","700","false","","","","",""
"","null","html-keyboard-response","146","305194","0.0-13.0-2.5","1","1","2023-10-30 23:52:03","ec53d80472dcc330b6ccf60011d5c0d4","171.66.13.53","Mozilla/5.0 (Macintosh; Intel Mac OS X 10_15_7) AppleWebKit/537.36 (KHTML, like Gecko) Chrome/118.0.0.0 Safari/537.36","Macintosh","Chrome","118.0.0.0","OS X","10_15_7","null","en-US,en;q=0.9","<font size=""100%"" weight=bold> - $0.04</font>","null","","","","","","","","","","","","","","",""
"","null","html-keyboard-response","147","306711","0.0-13.0-0.6","1","1","2023-10-30 23:52:03","ec53d80472dcc330b6ccf60011d5c0d4","171.66.13.53","Mozilla/5.0 (Macintosh; Intel Mac OS X 10_15_7) AppleWebKit/537.36 (KHTML, like Gecko) Chrome/118.0.0.0 Safari/537.36","Macintosh","Chrome","118.0.0.0","OS X","10_15_7","null","en-US,en;q=0.9","<div style=""font-size:120%; top:20%""></div>","null","[object Object]","","","","","","","","","","","","","",""
"","160","audio-keyboard-response","148","306874","0.0-13.0-1.6","1","1","2023-10-30 23:52:03","ec53d80472dcc330b6ccf60011d5c0d4","171.66.13.53","Mozilla/5.0 (Macintosh; Intel Mac OS X 10_15_7) AppleWebKit/537.36 (KHTML, like Gecko) Chrome/118.0.0.0 Safari/537.36","Macintosh","Chrome","118.0.0.0","OS X","10_15_7","null","en-US,en;q=0.9","sound/300","81","","acquisition","q","positive","2","700","300","q","300","","","","","",""
"","null","html-keyboard-response","149","307981","0.0-13.0-2.6","1","1","2023-10-30 23:52:03","ec53d80472dcc330b6ccf60011d5c0d4","171.66.13.53","Mozilla/5.0 (Macintosh; Intel Mac OS X 10_15_7) AppleWebKit/537.36 (KHTML, like Gecko) Chrome/118.0.0.0 Safari/537.36","Macintosh","Chrome","118.0.0.0","OS X","10_15_7","null","en-US,en;q=0.9","<font size=""100%"" weight=bold> + $0.00 </font>","null","","","","","","","","","","","","","","",""
"","null","html-keyboard-response","150","309491","0.0-13.0-0.7","1","1","2023-10-30 23:52:03","ec53d80472dcc330b6ccf60011d5c0d4","171.66.13.53","Mozilla/5.0 (Macintosh; Intel Mac OS X 10_15_7) AppleWebKit/537.36 (KHTML, like Gecko) Chrome/118.0.0.0 Safari/537.36","Macintosh","Chrome","118.0.0.0","OS X","10_15_7","null","en-US,en;q=0.9","<div style=""font-size:120%; top:20%""></div>","null","[object Object]","","","","","","","","","","","","","",""
"","1808","audio-keyboard-response","151","312002","0.0-13.0-1.7","1","1","2023-10-30 23:52:03","ec53d80472dcc330b6ccf60011d5c0d4","171.66.13.53","Mozilla/5.0 (Macintosh; Intel Mac OS X 10_15_7) AppleWebKit/537.36 (KHTML, like Gecko) Chrome/118.0.0.0 Safari/537.36","Macintosh","Chrome","118.0.0.0","OS X","10_15_7","null","en-US,en;q=0.9","sound/300","81","","acquisition","","positive","2","700","300","q","300","true","","","","",""
"","null","html-keyboard-response","152","313118","0.0-13.0-2.7","1","1","2023-10-30 23:52:03","ec53d80472dcc330b6ccf60011d5c0d4","171.66.13.53","Mozilla/5.0 (Macintosh; Intel Mac OS X 10_15_7) AppleWebKit/537.36 (KHTML, like Gecko) Chrome/118.0.0.0 Safari/537.36","Macintosh","Chrome","118.0.0.0","OS X","10_15_7","null","en-US,en;q=0.9","<font size=""100%"" weight=bold> + $0.04</font>","null","","","","","","","","","","","","","","",""
"","null","html-keyboard-response","153","314634","0.0-13.0-0.8","1","1","2023-10-30 23:52:03","ec53d80472dcc330b6ccf60011d5c0d4","171.66.13.53","Mozilla/5.0 (Macintosh; Intel Mac OS X 10_15_7) AppleWebKit/537.36 (KHTML, like Gecko) Chrome/118.0.0.0 Safari/537.36","Macintosh","Chrome","118.0.0.0","OS X","10_15_7","null","en-US,en;q=0.9","<div style=""font-size:120%; top:20%""></div>","null","[object Object]","","","","","","","","","","","","","",""
"","512","audio-keyboard-response","154","315153","0.0-13.0-1.8","1","1","2023-10-30 23:52:03","ec53d80472dcc330b6ccf60011d5c0d4","171.66.13.53","Mozilla/5.0 (Macintosh; Intel Mac OS X 10_15_7) AppleWebKit/537.36 (KHTML, like Gecko) Chrome/118.0.0.0 Safari/537.36","Macintosh","Chrome","118.0.0.0","OS X","10_15_7","null","en-US,en;q=0.9","sound/700","81","","acquisition","p","negative","2","700","300","q","700","","","","","",""
"","null","html-keyboard-response","155","316268","0.0-13.0-2.8","1","1","2023-10-30 23:52:03","ec53d80472dcc330b6ccf60011d5c0d4","171.66.13.53","Mozilla/5.0 (Macintosh; Intel Mac OS X 10_15_7) AppleWebKit/537.36 (KHTML, like Gecko) Chrome/118.0.0.0 Safari/537.36","Macintosh","Chrome","118.0.0.0","OS X","10_15_7","null","en-US,en;q=0.9","<font size=""100%"" weight=bold> - $0.04</font>","null","","","","","","","","","","","","","","",""
"","null","html-keyboard-response","156","317785","0.0-13.0-0.9","1","1","2023-10-30 23:52:03","ec53d80472dcc330b6ccf60011d5c0d4","171.66.13.53","Mozilla/5.0 (Macintosh; Intel Mac OS X 10_15_7) AppleWebKit/537.36 (KHTML, like Gecko) Chrome/118.0.0.0 Safari/537.36","Macintosh","Chrome","118.0.0.0","OS X","10_15_7","null","en-US,en;q=0.9","<div style=""font-size:120%; top:20%""></div>","null","[object Object]","","","","","","","","","","","","","",""
"","null","audio-keyboard-response","157","320293","0.0-13.0-1.9","1","1","2023-10-30 23:52:03","ec53d80472dcc330b6ccf60011d5c0d4","171.66.13.53","Mozilla/5.0 (Macintosh; Intel Mac OS X 10_15_7) AppleWebKit/537.36 (KHTML, like Gecko) Chrome/118.0.0.0 Safari/537.36","Macintosh","Chrome","118.0.0.0","OS X","10_15_7","null","en-US,en;q=0.9","sound/500","null","","acquisition","","neutral","2","700","300","q","500","","","","","",""
"","null","html-keyboard-response","158","321406","0.0-13.0-2.9","1","1","2023-10-30 23:52:03","ec53d80472dcc330b6ccf60011d5c0d4","171.66.13.53","Mozilla/5.0 (Macintosh; Intel Mac OS X 10_15_7) AppleWebKit/537.36 (KHTML, like Gecko) Chrome/118.0.0.0 Safari/537.36","Macintosh","Chrome","118.0.0.0","OS X","10_15_7","null","en-US,en;q=0.9","<font size=""100%""></font>","null","","","","","","","","","","","","","","",""
"","1630","html-keyboard-response","159","323548","0.0-14.0","1","1","2023-10-30 23:52:03","ec53d80472dcc330b6ccf60011d5c0d4","171.66.13.53","Mozilla/5.0 (Macintosh; Intel Mac OS X 10_15_7) AppleWebKit/537.36 (KHTML, like Gecko) Chrome/118.0.0.0 Safari/537.36","Macintosh","Chrome","118.0.0.0","OS X","10_15_7","null","en-US,en;q=0.9","The total bonus amount of bonus you earned in this last period was $0.00.<br> Press any key to continue to the next step.","32","","","","","","","","","","","","","","",""
"[{""page_index"":0,""viewing_time"":1470}]","1471","instructions","160","325023","0.0-15.0","1","1","2023-10-30 23:52:03","ec53d80472dcc330b6ccf60011d5c0d4","171.66.13.53","Mozilla/5.0 (Macintosh; Intel Mac OS X 10_15_7) AppleWebKit/537.36 (KHTML, like Gecko) Chrome/118.0.0.0 Safari/537.36","Macintosh","Chrome","118.0.0.0","OS X","10_15_7","null","en-US,en;q=0.9","","","","","","","","","","","","","","","","",""
"","null","html-keyboard-response","161","325935","0.0-16.0-0.0","1","1","2023-10-30 23:52:03","ec53d80472dcc330b6ccf60011d5c0d4","171.66.13.53","Mozilla/5.0 (Macintosh; Intel Mac OS X 10_15_7) AppleWebKit/537.36 (KHTML, like Gecko) Chrome/118.0.0.0 Safari/537.36","Macintosh","Chrome","118.0.0.0","OS X","10_15_7","null","en-US,en;q=0.9","","null","[object Object]","","","","","","","","","","","","","",""
"","560","audio-keyboard-response","162","326502","0.0-16.0-1.0","1","1","2023-10-30 23:52:03","ec53d80472dcc330b6ccf60011d5c0d4","171.66.13.53","Mozilla/5.0 (Macintosh; Intel Mac OS X 10_15_7) AppleWebKit/537.36 (KHTML, like Gecko) Chrome/118.0.0.0 Safari/537.36","Macintosh","Chrome","118.0.0.0","OS X","10_15_7","null","en-US,en;q=0.9","sound/720","80","","generalization","space","negative","2","700","300","q","","false","720","20","20","true",""
"","null","html-keyboard-response","163","327516","0.0-16.0-2.0","1","1","2023-10-30 23:52:03","ec53d80472dcc330b6ccf60011d5c0d4","171.66.13.53","Mozilla/5.0 (Macintosh; Intel Mac OS X 10_15_7) AppleWebKit/537.36 (KHTML, like Gecko) Chrome/118.0.0.0 Safari/537.36","Macintosh","Chrome","118.0.0.0","OS X","10_15_7","null","en-US,en;q=0.9","","null","","","","","","","","","","","","","","",""
"","null","html-keyboard-response","164","328023","0.0-16.0-0.1","1","1","2023-10-30 23:52:03","ec53d80472dcc330b6ccf60011d5c0d4","171.66.13.53","Mozilla/5.0 (Macintosh; Intel Mac OS X 10_15_7) AppleWebKit/537.36 (KHTML, like Gecko) Chrome/118.0.0.0 Safari/537.36","Macintosh","Chrome","118.0.0.0","OS X","10_15_7","null","en-US,en;q=0.9","","null","[object Object]","","","","","","","","","","","","","",""
"","1189","audio-keyboard-response","165","329213","0.0-16.0-1.1","1","1","2023-10-30 23:52:03","ec53d80472dcc330b6ccf60011d5c0d4","171.66.13.53","Mozilla/5.0 (Macintosh; Intel Mac OS X 10_15_7) AppleWebKit/537.36 (KHTML, like Gecko) Chrome/118.0.0.0 Safari/537.36","Macintosh","Chrome","118.0.0.0","OS X","10_15_7","null","en-US,en;q=0.9","sound/400","80","","generalization","space","positive","2","700","300","q","","false","400","100","21","false",""
"","null","html-keyboard-response","166","330222","0.0-16.0-2.1","1","1","2023-10-30 23:52:03","ec53d80472dcc330b6ccf60011d5c0d4","171.66.13.53","Mozilla/5.0 (Macintosh; Intel Mac OS X 10_15_7) AppleWebKit/537.36 (KHTML, like Gecko) Chrome/118.0.0.0 Safari/537.36","Macintosh","Chrome","118.0.0.0","OS X","10_15_7","null","en-US,en;q=0.9","","null","","","","","","","","","","","","","","",""
"","null","html-keyboard-response","167","330732","0.0-16.0-0.2","1","1","2023-10-30 23:52:03","ec53d80472dcc330b6ccf60011d5c0d4","171.66.13.53","Mozilla/5.0 (Macintosh; Intel Mac OS X 10_15_7) AppleWebKit/537.36 (KHTML, like Gecko) Chrome/118.0.0.0 Safari/537.36","Macintosh","Chrome","118.0.0.0","OS X","10_15_7","null","en-US,en;q=0.9","","null","[object Object]","","","","","","","","","","","","","",""
"","379","audio-keyboard-response","168","331113","0.0-16.0-1.2","1","1","2023-10-30 23:52:03","ec53d80472dcc330b6ccf60011d5c0d4","171.66.13.53","Mozilla/5.0 (Macintosh; Intel Mac OS X 10_15_7) AppleWebKit/537.36 (KHTML, like Gecko) Chrome/118.0.0.0 Safari/537.36","Macintosh","Chrome","118.0.0.0","OS X","10_15_7","null","en-US,en;q=0.9","sound/680","80","","generalization","space","negative","2","700","300","q","","false","680","-20","22","true",""
"","null","html-keyboard-response","169","332119","0.0-16.0-2.2","1","1","2023-10-30 23:52:03","ec53d80472dcc330b6ccf60011d5c0d4","171.66.13.53","Mozilla/5.0 (Macintosh; Intel Mac OS X 10_15_7) AppleWebKit/537.36 (KHTML, like Gecko) Chrome/118.0.0.0 Safari/537.36","Macintosh","Chrome","118.0.0.0","OS X","10_15_7","null","en-US,en;q=0.9","","null","","","","","","","","","","","","","","",""
"","null","html-keyboard-response","170","332631","0.0-16.0-0.3","1","1","2023-10-30 23:52:03","ec53d80472dcc330b6ccf60011d5c0d4","171.66.13.53","Mozilla/5.0 (Macintosh; Intel Mac OS X 10_15_7) AppleWebKit/537.36 (KHTML, like Gecko) Chrome/118.0.0.0 Safari/537.36","Macintosh","Chrome","118.0.0.0","OS X","10_15_7","null","en-US,en;q=0.9","","null","[object Object]","","","","","","","","","","","","","",""
"","null","audio-keyboard-response","171","335138","0.0-16.0-1.3","1","1","2023-10-30 23:52:03","ec53d80472dcc330b6ccf60011d5c0d4","171.66.13.53","Mozilla/5.0 (Macintosh; Intel Mac OS X 10_15_7) AppleWebKit/537.36 (KHTML, like Gecko) Chrome/118.0.0.0 Safari/537.36","Macintosh","Chrome","118.0.0.0","OS X","10_15_7","null","en-US,en;q=0.9","sound/320","null","","generalization","space","positive","2","700","300","q","","false","320","20","23","",""
"","null","html-keyboard-response","172","336149","0.0-16.0-2.3","1","1","2023-10-30 23:52:03","ec53d80472dcc330b6ccf60011d5c0d4","171.66.13.53","Mozilla/5.0 (Macintosh; Intel Mac OS X 10_15_7) AppleWebKit/537.36 (KHTML, like Gecko) Chrome/118.0.0.0 Safari/537.36","Macintosh","Chrome","118.0.0.0","OS X","10_15_7","null","en-US,en;q=0.9","<p style='font-weight:bold; color: red; font-size=100%'> - $0.40<br>RESPOND FASTER!</p>","null","","","","","","","","","","","","","","",""
"","null","html-keyboard-response","173","336657","0.0-16.0-0.4","1","1","2023-10-30 23:52:03","ec53d80472dcc330b6ccf60011d5c0d4","171.66.13.53","Mozilla/5.0 (Macintosh; Intel Mac OS X 10_15_7) AppleWebKit/537.36 (KHTML, like Gecko) Chrome/118.0.0.0 Safari/537.36","Macintosh","Chrome","118.0.0.0","OS X","10_15_7","null","en-US,en;q=0.9","","null","[object Object]","","","","","","","","","","","","","",""
"","null","audio-keyboard-response","174","339169","0.0-16.0-1.4","1","1","2023-10-30 23:52:03","ec53d80472dcc330b6ccf60011d5c0d4","171.66.13.53","Mozilla/5.0 (Macintosh; Intel Mac OS X 10_15_7) AppleWebKit/537.36 (KHTML, like Gecko) Chrome/118.0.0.0 Safari/537.36","Macintosh","Chrome","118.0.0.0","OS X","10_15_7","null","en-US,en;q=0.9","sound/600","null","","generalization","space","negative","2","700","300","q","","false","600","-100","24","",""
"","null","html-keyboard-response","175","340183","0.0-16.0-2.4","1","1","2023-10-30 23:52:03","ec53d80472dcc330b6ccf60011d5c0d4","171.66.13.53","Mozilla/5.0 (Macintosh; Intel Mac OS X 10_15_7) AppleWebKit/537.36 (KHTML, like Gecko) Chrome/118.0.0.0 Safari/537.36","Macintosh","Chrome","118.0.0.0","OS X","10_15_7","null","en-US,en;q=0.9","<p style='font-weight:bold; color: red; font-size=100%'> - $0.40<br>RESPOND FASTER!</p>","null","","","","","","","","","","","","","","",""
"","null","html-keyboard-response","176","340690","0.0-16.0-0.5","1","1","2023-10-30 23:52:03","ec53d80472dcc330b6ccf60011d5c0d4","171.66.13.53","Mozilla/5.0 (Macintosh; Intel Mac OS X 10_15_7) AppleWebKit/537.36 (KHTML, like Gecko) Chrome/118.0.0.0 Safari/537.36","Macintosh","Chrome","118.0.0.0","OS X","10_15_7","null","en-US,en;q=0.9","","null","[object Object]","","","","","","","","","","","","","",""
"","267","audio-keyboard-response","177","340957","0.0-16.0-1.5","1","1","2023-10-30 23:52:03","ec53d80472dcc330b6ccf60011d5c0d4","171.66.13.53","Mozilla/5.0 (Macintosh; Intel Mac OS X 10_15_7) AppleWebKit/537.36 (KHTML, like Gecko) Chrome/118.0.0.0 Safari/537.36","Macintosh","Chrome","118.0.0.0","OS X","10_15_7","null","en-US,en;q=0.9","sound/700","80","","generalization","p","negative","2","700","300","q","","true","","0","25","true",""
"","null","html-keyboard-response","178","341966","0.0-16.0-2.5","1","1","2023-10-30 23:52:03","ec53d80472dcc330b6ccf60011d5c0d4","171.66.13.53","Mozilla/5.0 (Macintosh; Intel Mac OS X 10_15_7) AppleWebKit/537.36 (KHTML, like Gecko) Chrome/118.0.0.0 Safari/537.36","Macintosh","Chrome","118.0.0.0","OS X","10_15_7","null","en-US,en;q=0.9","","null","","","","","","","","","","","","","","",""
"","null","html-keyboard-response","179","342475","0.0-16.0-0.6","1","1","2023-10-30 23:52:03","ec53d80472dcc330b6ccf60011d5c0d4","171.66.13.53","Mozilla/5.0 (Macintosh; Intel Mac OS X 10_15_7) AppleWebKit/537.36 (KHTML, like Gecko) Chrome/118.0.0.0 Safari/537.36","Macintosh","Chrome","118.0.0.0","OS X","10_15_7","null","en-US,en;q=0.9","","null","[object Object]","","","","","","","","","","","","","",""
"","null","audio-keyboard-response","180","344989","0.0-16.0-1.6","1","1","2023-10-30 23:52:03","ec53d80472dcc330b6ccf60011d5c0d4","171.66.13.53","Mozilla/5.0 (Macintosh; Intel Mac OS X 10_15_7) AppleWebKit/537.36 (KHTML, like Gecko) Chrome/118.0.0.0 Safari/537.36","Macintosh","Chrome","118.0.0.0","OS X","10_15_7","null","en-US,en;q=0.9","sound/200","null","","generalization","space","positive","2","700","300","q","","false","200","-100","26","",""
"","null","html-keyboard-response","181","345999","0.0-16.0-2.6","1","1","2023-10-30 23:52:03","ec53d80472dcc330b6ccf60011d5c0d4","171.66.13.53","Mozilla/5.0 (Macintosh; Intel Mac OS X 10_15_7) AppleWebKit/537.36 (KHTML, like Gecko) Chrome/118.0.0.0 Safari/537.36","Macintosh","Chrome","118.0.0.0","OS X","10_15_7","null","en-US,en;q=0.9","<p style='font-weight:bold; color: red; font-size=100%'> - $0.40<br>RESPOND FASTER!</p>","null","","","","","","","","","","","","","","",""
"","null","html-keyboard-response","182","346509","0.0-16.0-0.7","1","1","2023-10-30 23:52:03","ec53d80472dcc330b6ccf60011d5c0d4","171.66.13.53","Mozilla/5.0 (Macintosh; Intel Mac OS X 10_15_7) AppleWebKit/537.36 (KHTML, like Gecko) Chrome/118.0.0.0 Safari/537.36","Macintosh","Chrome","118.0.0.0","OS X","10_15_7","null","en-US,en;q=0.9","","null","[object Object]","","","","","","","","","","","","","",""
"","null","audio-keyboard-response","183","349020","0.0-16.0-1.7","1","1","2023-10-30 23:52:03","ec53d80472dcc330b6ccf60011d5c0d4","171.66.13.53","Mozilla/5.0 (Macintosh; Intel Mac OS X 10_15_7) AppleWebKit/537.36 (KHTML, like Gecko) Chrome/118.0.0.0 Safari/537.36","Macintosh","Chrome","118.0.0.0","OS X","10_15_7","null","en-US,en;q=0.9","sound/800","null","","generalization","space","negative","2","700","300","q","","false","800","100","27","",""
"","null","html-keyboard-response","184","350031","0.0-16.0-2.7","1","1","2023-10-30 23:52:03","ec53d80472dcc330b6ccf60011d5c0d4","171.66.13.53","Mozilla/5.0 (Macintosh; Intel Mac OS X 10_15_7) AppleWebKit/537.36 (KHTML, like Gecko) Chrome/118.0.0.0 Safari/537.36","Macintosh","Chrome","118.0.0.0","OS X","10_15_7","null","en-US,en;q=0.9","<p style='font-weight:bold; color: red; font-size=100%'> - $0.40<br>RESPOND FASTER!</p>","null","","","","","","","","","","","","","","",""
"","null","html-keyboard-response","185","350539","0.0-16.0-0.8","1","1","2023-10-30 23:52:03","ec53d80472dcc330b6ccf60011d5c0d4","171.66.13.53","Mozilla/5.0 (Macintosh; Intel Mac OS X 10_15_7) AppleWebKit/537.36 (KHTML, like Gecko) Chrome/118.0.0.0 Safari/537.36","Macintosh","Chrome","118.0.0.0","OS X","10_15_7","null","en-US,en;q=0.9","","null","[object Object]","","","","","","","","","","","","","",""
"","null","audio-keyboard-response","186","353049","0.0-16.0-1.8","1","1","2023-10-30 23:52:03","ec53d80472dcc330b6ccf60011d5c0d4","171.66.13.53","Mozilla/5.0 (Macintosh; Intel Mac OS X 10_15_7) AppleWebKit/537.36 (KHTML, like Gecko) Chrome/118.0.0.0 Safari/537.36","Macintosh","Chrome","118.0.0.0","OS X","10_15_7","null","en-US,en;q=0.9","sound/280","null","","generalization","space","positive","2","700","300","q","","false","280","-20","28","",""
"","null","html-keyboard-response","187","354059","0.0-16.0-2.8","1","1","2023-10-30 23:52:03","ec53d80472dcc330b6ccf60011d5c0d4","171.66.13.53","Mozilla/5.0 (Macintosh; Intel Mac OS X 10_15_7) AppleWebKit/537.36 (KHTML, like Gecko) Chrome/118.0.0.0 Safari/537.36","Macintosh","Chrome","118.0.0.0","OS X","10_15_7","null","en-US,en;q=0.9","<p style='font-weight:bold; color: red; font-size=100%'> - $0.40<br>RESPOND FASTER!</p>","null","","","","","","","","","","","","","","",""
"","null","html-keyboard-response","188","354573","0.0-16.0-0.9","1","1","2023-10-30 23:52:03","ec53d80472dcc330b6ccf60011d5c0d4","171.66.13.53","Mozilla/5.0 (Macintosh; Intel Mac OS X 10_15_7) AppleWebKit/537.36 (KHTML, like Gecko) Chrome/118.0.0.0 Safari/537.36","Macintosh","Chrome","118.0.0.0","OS X","10_15_7","null","en-US,en;q=0.9","","null","[object Object]","","","","","","","","","","","","","",""
"","null","audio-keyboard-response","189","357083","0.0-16.0-1.9","1","1","2023-10-30 23:52:03","ec53d80472dcc330b6ccf60011d5c0d4","171.66.13.53","Mozilla/5.0 (Macintosh; Intel Mac OS X 10_15_7) AppleWebKit/537.36 (KHTML, like Gecko) Chrome/118.0.0.0 Safari/537.36","Macintosh","Chrome","118.0.0.0","OS X","10_15_7","null","en-US,en;q=0.9","sound/300","null","","generalization","q","positive","2","700","300","q","","false","","0","29","",""
"","null","html-keyboard-response","190","358091","0.0-16.0-2.9","1","1","2023-10-30 23:52:03","ec53d80472dcc330b6ccf60011d5c0d4","171.66.13.53","Mozilla/5.0 (Macintosh; Intel Mac OS X 10_15_7) AppleWebKit/537.36 (KHTML, like Gecko) Chrome/118.0.0.0 Safari/537.36","Macintosh","Chrome","118.0.0.0","OS X","10_15_7","null","en-US,en;q=0.9","<p style='font-weight:bold; color: red; font-size=100%'> - $0.40<br>RESPOND FASTER!</p>","null","","","","","","","","","","","","","","",""
"","3909","html-keyboard-response","191","362006","0.0-17.0","1","1","2023-10-30 23:52:03","ec53d80472dcc330b6ccf60011d5c0d4","171.66.13.53","Mozilla/5.0 (Macintosh; Intel Mac OS X 10_15_7) AppleWebKit/537.36 (KHTML, like Gecko) Chrome/118.0.0.0 Safari/537.36","Macintosh","Chrome","118.0.0.0","OS X","10_15_7","null","en-US,en;q=0.9","bonus earned during this period: $0.04<br><br>Press any key to continue.","80","","","","","","","","","","","","","","",""
"","5259","survey-text","192","367272","0.0-18.0","1","1","2023-10-30 23:52:03","ec53d80472dcc330b6ccf60011d5c0d4","171.66.13.53","Mozilla/5.0 (Macintosh; Intel Mac OS X 10_15_7) AppleWebKit/537.36 (KHTML, like Gecko) Chrome/118.0.0.0 Safari/537.36","Macintosh","Chrome","118.0.0.0","OS X","10_15_7","null","en-US,en;q=0.9","","","","","","","","","","","","","","","","","{""Q0"":""amazinfg !!!!""}"
