,view_history,rt,trial_type,trial_index,time_elapsed,internal_node_id,run_id,condition,recorded_at,source_code_version,ip,user_agent,device,browser,browser_version,platform,platform_version,referer,accept_language,stimulus,key_press,trial_info,stage,correct_response,valence,i_block,negative_tone,positive_tone,positive_key,frequency,correct,tone,distance,i_generalization_trial,valence_match,responses,negative_key,association
0,"[{""page_index"":0,""viewing_time"":4053},{""page_index"":1,""viewing_time"":1434},{""page_index"":2,""viewing_time"":960},{""page_index"":3,""viewing_time"":3533},{""page_index"":4,""viewing_time"":686},{""page_index"":5,""viewing_time"":1244},{""page_index"":6,""viewing_time"":114881},{""page_index"":7,""viewing_time"":2100},{""page_index"":8,""viewing_time"":1915}]",130809.0,instructions,0,130810,0.0-0.0,1,1,2023-10-30 23:52:03,ec53d80472dcc330b6ccf60011d5c0d4,171.66.13.53,"Mozilla/5.0 (Macintosh; Intel Mac OS X 10_15_7) AppleWebKit/537.36 (KHTML, like Gecko) Chrome/118.0.0.0 Safari/537.36",Macintosh,Chrome,118.0.0.0,OS X,10_15_7,,"en-US,en;q=0.9",,,,,,,,,,,,,,,,,,,
1,,,html-keyboard-response,1,132818,0.0-1.0-0.0,1,1,2023-10-30 23:52:03,ec53d80472dcc330b6ccf60011d5c0d4,171.66.13.53,"Mozilla/5.0 (Macintosh; Intel Mac OS X 10_15_7) AppleWebKit/537.36 (KHTML, like Gecko) Chrome/118.0.0.0 Safari/537.36",Macintosh,Chrome,118.0.0.0,OS X,10_15_7,,"en-US,en;q=0.9","<div style=""font-size:120%; top:20%""></div>",,[object Object],,,,,,,,,,,,,,,,
2,,1947.0,audio-keyboard-response,2,134809,0.0-1.0-1.0,1,1,2023-10-30 23:52:03,ec53d80472dcc330b6ccf60011d5c0d4,171.66.13.53,"Mozilla/5.0 (Macintosh; Intel Mac OS X 10_15_7) AppleWebKit/537.36 (KHTML, like Gecko) Chrome/118.0.0.0 Safari/537.36",Macintosh,Chrome,118.0.0.0,OS X,10_15_7,,"en-US,en;q=0.9",sound/300,80.0,,acquisition,q,positive,0.0,700.0,300.0,,300.0,,,,,,,,
3,,,html-keyboard-response,4,137435,0.0-1.0-0.1,1,1,2023-10-30 23:52:03,ec53d80472dcc330b6ccf60011d5c0d4,171.66.13.53,"Mozilla/5.0 (Macintosh; Intel Mac OS X 10_15_7) AppleWebKit/537.36 (KHTML, like Gecko) Chrome/118.0.0.0 Safari/537.36",Macintosh,Chrome,118.0.0.0,OS X,10_15_7,,"en-US,en;q=0.9","<div style=""font-size:120%; top:20%""></div>",,[object Object],,,,,,,,,,,,,,,,
4,,,audio-keyboard-response,5,139939,0.0-1.0-1.1,1,1,2023-10-30 23:52:03,ec53d80472dcc330b6ccf60011d5c0d4,171.66.13.53,"Mozilla/5.0 (Macintosh; Intel Mac OS X 10_15_7) AppleWebKit/537.36 (KHTML, like Gecko) Chrome/118.0.0.0 Safari/537.36",Macintosh,Chrome,118.0.0.0,OS X,10_15_7,,"en-US,en;q=0.9",sound/300,,,acquisition,,positive,0.0,700.0,300.0,,300.0,True,,,,,,,
5,,,html-keyboard-response,6,141050,0.0-1.0-2.1,1,1,2023-10-30 23:52:03,ec53d80472dcc330b6ccf60011d5c0d4,171.66.13.53,"Mozilla/5.0 (Macintosh; Intel Mac OS X 10_15_7) AppleWebKit/537.36 (KHTML, like Gecko) Chrome/118.0.0.0 Safari/537.36",Macintosh,Chrome,118.0.0.0,OS X,10_15_7,,"en-US,en;q=0.9","<font size=""100%"" weight=bold> + $0.04</font>",,,,,,,,,,,,,,,,,,
6,,,html-keyboard-response,7,142563,0.0-1.0-0.2,1,1,2023-10-30 23:52:03,ec53d80472dcc330b6ccf60011d5c0d4,171.66.13.53,"Mozilla/5.0 (Macintosh; Intel Mac OS X 10_15_7) AppleWebKit/537.36 (KHTML, like Gecko) Chrome/118.0.0.0 Safari/537.36",Macintosh,Chrome,118.0.0.0,OS X,10_15_7,,"en-US,en;q=0.9","<div style=""font-size:120%; top:20%""></div>",,[object Object],,,,,,,,,,,,,,,,
7,,1429.0,audio-keyboard-response,8,143993,0.0-1.0-1.2,1,1,2023-10-30 23:52:03,ec53d80472dcc330b6ccf60011d5c0d4,171.66.13.53,"Mozilla/5.0 (Macintosh; Intel Mac OS X 10_15_7) AppleWebKit/537.36 (KHTML, like Gecko) Chrome/118.0.0.0 Safari/537.36",Macintosh,Chrome,118.0.0.0,OS X,10_15_7,,"en-US,en;q=0.9",sound/500,80.0,,acquisition,,neutral,0.0,700.0,300.0,,500.0,,,,,,,,
8,,,html-keyboard-response,9,145101,0.0-1.0-2.2,1,1,2023-10-30 23:52:03,ec53d80472dcc330b6ccf60011d5c0d4,171.66.13.53,"Mozilla/5.0 (Macintosh; Intel Mac OS X 10_15_7) AppleWebKit/537.36 (KHTML, like Gecko) Chrome/118.0.0.0 Safari/537.36",Macintosh,Chrome,118.0.0.0,OS X,10_15_7,,"en-US,en;q=0.9","<font size=""100%""></font>",,,,,,,,,,,,,,,,,,
9,,,html-keyboard-response,10,146607,0.0-1.0-0.3,1,1,2023-10-30 23:52:03,ec53d80472dcc330b6ccf60011d5c0d4,171.66.13.53,"Mozilla/5.0 (Macintosh; Intel Mac OS X 10_15_7) AppleWebKit/537.36 (KHTML, like Gecko) Chrome/118.0.0.0 Safari/537.36",Macintosh,Chrome,118.0.0.0,OS X,10_15_7,,"en-US,en;q=0.9","<div style=""font-size:120%; top:20%""></div>",,[object Object],,,,,,,,,,,,,,,,
10,,704.0,audio-keyboard-response,11,147317,0.0-1.0-1.3,1,1,2023-10-30 23:52:03,ec53d80472dcc330b6ccf60011d5c0d4,171.66.13.53,"Mozilla/5.0 (Macintosh; Intel Mac OS X 10_15_7) AppleWebKit/537.36 (KHTML, like Gecko) Chrome/118.0.0.0 Safari/537.36",Macintosh,Chrome,118.0.0.0,OS X,10_15_7,,"en-US,en;q=0.9",sound/700,81.0,,acquisition,p,negative,0.0,700.0,300.0,,700.0,,,,,,,,
11,,,html-keyboard-response,12,148426,0.0-1.0-2.3,1,1,2023-10-30 23:52:03,ec53d80472dcc330b6ccf60011d5c0d4,171.66.13.53,"Mozilla/5.0 (Macintosh; Intel Mac OS X 10_15_7) AppleWebKit/537.36 (KHTML, like Gecko) Chrome/118.0.0.0 Safari/537.36",Macintosh,Chrome,118.0.0.0,OS X,10_15_7,,"en-US,en;q=0.9","<font size=""100%"" weight=bold> - $0.04</font>",,,,,,,,,,,,,,,,,,
12,,,html-keyboard-response,13,149936,0.0-1.0-0.4,1,1,2023-10-30 23:52:03,ec53d80472dcc330b6ccf60011d5c0d4,171.66.13.53,"Mozilla/5.0 (Macintosh; Intel Mac OS X 10_15_7) AppleWebKit/537.36 (KHTML, like Gecko) Chrome/118.0.0.0 Safari/537.36",Macintosh,Chrome,118.0.0.0,OS X,10_15_7,,"en-US,en;q=0.9","<div style=""font-size:120%; top:20%""></div>",,[object Object],,,,,,,,,,,,,,,,
13,,,audio-keyboard-response,14,152441,0.0-1.0-1.4,1,1,2023-10-30 23:52:03,ec53d80472dcc330b6ccf60011d5c0d4,171.66.13.53,"Mozilla/5.0 (Macintosh; Intel Mac OS X 10_15_7) AppleWebKit/537.36 (KHTML, like Gecko) Chrome/118.0.0.0 Safari/537.36",Macintosh,Chrome,118.0.0.0,OS X,10_15_7,,"en-US,en;q=0.9",sound/700,,,acquisition,,negative,0.0,700.0,300.0,,700.0,False,,,,,,,
14,,,html-keyboard-response,15,153553,0.0-1.0-2.4,1,1,2023-10-30 23:52:03,ec53d80472dcc330b6ccf60011d5c0d4,171.66.13.53,"Mozilla/5.0 (Macintosh; Intel Mac OS X 10_15_7) AppleWebKit/537.36 (KHTML, like Gecko) Chrome/118.0.0.0 Safari/537.36",Macintosh,Chrome,118.0.0.0,OS X,10_15_7,,"en-US,en;q=0.9","<font size=""100%"" weight=bold> - $0.04</font>",,,,,,,,,,,,,,,,,,
15,,,html-keyboard-response,16,155065,0.0-1.0-0.5,1,1,2023-10-30 23:52:03,ec53d80472dcc330b6ccf60011d5c0d4,171.66.13.53,"Mozilla/5.0 (Macintosh; Intel Mac OS X 10_15_7) AppleWebKit/537.36 (KHTML, like Gecko) Chrome/118.0.0.0 Safari/537.36",Macintosh,Chrome,118.0.0.0,OS X,10_15_7,,"en-US,en;q=0.9","<div style=""font-size:120%; top:20%""></div>",,[object Object],,,,,,,,,,,,,,,,
16,,2187.0,audio-keyboard-response,17,157573,0.0-1.0-1.5,1,1,2023-10-30 23:52:03,ec53d80472dcc330b6ccf60011d5c0d4,171.66.13.53,"Mozilla/5.0 (Macintosh; Intel Mac OS X 10_15_7) AppleWebKit/537.36 (KHTML, like Gecko) Chrome/118.0.0.0 Safari/537.36",Macintosh,Chrome,118.0.0.0,OS X,10_15_7,,"en-US,en;q=0.9",sound/300,80.0,,acquisition,,positive,0.0,700.0,300.0,,300.0,True,,,,,,,
17,,,html-keyboard-response,18,158679,0.0-1.0-2.5,1,1,2023-10-30 23:52:03,ec53d80472dcc330b6ccf60011d5c0d4,171.66.13.53,"Mozilla/5.0 (Macintosh; Intel Mac OS X 10_15_7) AppleWebKit/537.36 (KHTML, like Gecko) Chrome/118.0.0.0 Safari/537.36",Macintosh,Chrome,118.0.0.0,OS X,10_15_7,,"en-US,en;q=0.9","<font size=""100%"" weight=bold> + $0.04</font>",,,,,,,,,,,,,,,,,,
18,,,html-keyboard-response,19,160186,0.0-1.0-0.6,1,1,2023-10-30 23:52:03,ec53d80472dcc330b6ccf60011d5c0d4,171.66.13.53,"Mozilla/5.0 (Macintosh; Intel Mac OS X 10_15_7) AppleWebKit/537.36 (KHTML, like Gecko) Chrome/118.0.0.0 Safari/537.36",Macintosh,Chrome,118.0.0.0,OS X,10_15_7,,"en-US,en;q=0.9","<div style=""font-size:120%; top:20%""></div>",,[object Object],,,,,,,,,,,,,,,,
19,,101.0,audio-keyboard-response,20,162694,0.0-1.0-1.6,1,1,2023-10-30 23:52:03,ec53d80472dcc330b6ccf60011d5c0d4,171.66.13.53,"Mozilla/5.0 (Macintosh; Intel Mac OS X 10_15_7) AppleWebKit/537.36 (KHTML, like Gecko) Chrome/118.0.0.0 Safari/537.36",Macintosh,Chrome,118.0.0.0,OS X,10_15_7,,"en-US,en;q=0.9",sound/700,80.0,,acquisition,,negative,0.0,700.0,300.0,,700.0,False,,,,,,,
20,,,html-keyboard-response,21,163801,0.0-1.0-2.6,1,1,2023-10-30 23:52:03,ec53d80472dcc330b6ccf60011d5c0d4,171.66.13.53,"Mozilla/5.0 (Macintosh; Intel Mac OS X 10_15_7) AppleWebKit/537.36 (KHTML, like Gecko) Chrome/118.0.0.0 Safari/537.36",Macintosh,Chrome,118.0.0.0,OS X,10_15_7,,"en-US,en;q=0.9","<font size=""100%"" weight=bold> - $0.04</font>",,,,,,,,,,,,,,,,,,
21,,,html-keyboard-response,22,165315,0.0-1.0-0.7,1,1,2023-10-30 23:52:03,ec53d80472dcc330b6ccf60011d5c0d4,171.66.13.53,"Mozilla/5.0 (Macintosh; Intel Mac OS X 10_15_7) AppleWebKit/537.36 (KHTML, like Gecko) Chrome/118.0.0.0 Safari/537.36",Macintosh,Chrome,118.0.0.0,OS X,10_15_7,,"en-US,en;q=0.9","<div style=""font-size:120%; top:20%""></div>",,[object Object],,,,,,,,,,,,,,,,
22,,763.0,audio-keyboard-response,23,166083,0.0-1.0-1.7,1,1,2023-10-30 23:52:03,ec53d80472dcc330b6ccf60011d5c0d4,171.66.13.53,"Mozilla/5.0 (Macintosh; Intel Mac OS X 10_15_7) AppleWebKit/537.36 (KHTML, like Gecko) Chrome/118.0.0.0 Safari/537.36",Macintosh,Chrome,118.0.0.0,OS X,10_15_7,,"en-US,en;q=0.9",sound/300,80.0,,acquisition,q,positive,0.0,700.0,300.0,,300.0,,,,,,,,
23,,,html-keyboard-response,24,167193,0.0-1.0-2.7,1,1,2023-10-30 23:52:03,ec53d80472dcc330b6ccf60011d5c0d4,171.66.13.53,"Mozilla/5.0 (Macintosh; Intel Mac OS X 10_15_7) AppleWebKit/537.36 (KHTML, like Gecko) Chrome/118.0.0.0 Safari/537.36",Macintosh,Chrome,118.0.0.0,OS X,10_15_7,,"en-US,en;q=0.9","<font size=""100%"" weight=bold> + $0.00 </font>",,,,,,,,,,,,,,,,,,
24,,,html-keyboard-response,25,168698,0.0-1.0-0.8,1,1,2023-10-30 23:52:03,ec53d80472dcc330b6ccf60011d5c0d4,171.66.13.53,"Mozilla/5.0 (Macintosh; Intel Mac OS X 10_15_7) AppleWebKit/537.36 (KHTML, like Gecko) Chrome/118.0.0.0 Safari/537.36",Macintosh,Chrome,118.0.0.0,OS X,10_15_7,,"en-US,en;q=0.9","<div style=""font-size:120%; top:20%""></div>",,[object Object],,,,,,,,,,,,,,,,
25,,32.0,audio-keyboard-response,26,168737,0.0-1.0-1.8,1,1,2023-10-30 23:52:03,ec53d80472dcc330b6ccf60011d5c0d4,171.66.13.53,"Mozilla/5.0 (Macintosh; Intel Mac OS X 10_15_7) AppleWebKit/537.36 (KHTML, like Gecko) Chrome/118.0.0.0 Safari/537.36",Macintosh,Chrome,118.0.0.0,OS X,10_15_7,,"en-US,en;q=0.9",sound/700,80.0,,acquisition,p,negative,0.0,700.0,300.0,,700.0,,,,,,,,
26,,,html-keyboard-response,27,169844,0.0-1.0-2.8,1,1,2023-10-30 23:52:03,ec53d80472dcc330b6ccf60011d5c0d4,171.66.13.53,"Mozilla/5.0 (Macintosh; Intel Mac OS X 10_15_7) AppleWebKit/537.36 (KHTML, like Gecko) Chrome/118.0.0.0 Safari/537.36",Macintosh,Chrome,118.0.0.0,OS X,10_15_7,,"en-US,en;q=0.9","<font size=""100%"" weight=bold> - $0.04</font>",,,,,,,,,,,,,,,,,,
27,,,html-keyboard-response,28,171350,0.0-1.0-0.9,1,1,2023-10-30 23:52:03,ec53d80472dcc330b6ccf60011d5c0d4,171.66.13.53,"Mozilla/5.0 (Macintosh; Intel Mac OS X 10_15_7) AppleWebKit/537.36 (KHTML, like Gecko) Chrome/118.0.0.0 Safari/537.36",Macintosh,Chrome,118.0.0.0,OS X,10_15_7,,"en-US,en;q=0.9","<div style=""font-size:120%; top:20%""></div>",,[object Object],,,,,,,,,,,,,,,,
28,,341.0,audio-keyboard-response,29,171693,0.0-1.0-1.9,1,1,2023-10-30 23:52:03,ec53d80472dcc330b6ccf60011d5c0d4,171.66.13.53,"Mozilla/5.0 (Macintosh; Intel Mac OS X 10_15_7) AppleWebKit/537.36 (KHTML, like Gecko) Chrome/118.0.0.0 Safari/537.36",Macintosh,Chrome,118.0.0.0,OS X,10_15_7,,"en-US,en;q=0.9",sound/500,80.0,,acquisition,,neutral,0.0,700.0,300.0,,500.0,,,,,,,,
29,,,html-keyboard-response,30,172800,0.0-1.0-2.9,1,1,2023-10-30 23:52:03,ec53d80472dcc330b6ccf60011d5c0d4,171.66.13.53,"Mozilla/5.0 (Macintosh; Intel Mac OS X 10_15_7) AppleWebKit/537.36 (KHTML, like Gecko) Chrome/118.0.0.0 Safari/537.36",Macintosh,Chrome,118.0.0.0,OS X,10_15_7,,"en-US,en;q=0.9","<font size=""100%""></font>",,,,,,,,,,,,,,,,,,
30,,3170.0,html-keyboard-response,31,176476,0.0-2.0,1,1,2023-10-30 23:52:03,ec53d80472dcc330b6ccf60011d5c0d4,171.66.13.53,"Mozilla/5.0 (Macintosh; Intel Mac OS X 10_15_7) AppleWebKit/537.36 (KHTML, like Gecko) Chrome/118.0.0.0 Safari/537.36",Macintosh,Chrome,118.0.0.0,OS X,10_15_7,,"en-US,en;q=0.9",The total bonus amount of bonus you earned in this last period was $0.00.<br> Press any key to continue to the next step.,32.0,,,,,,,,,,,,,,,,,
31,"[{""page_index"":0,""viewing_time"":1029},{""page_index"":1,""viewing_time"":667},{""page_index"":2,""viewing_time"":1016},{""page_index"":3,""viewing_time"":1618},{""page_index"":4,""viewing_time"":700}]",5030.0,instructions,32,181508,0.0-3.0,1,1,2023-10-30 23:52:03,ec53d80472dcc330b6ccf60011d5c0d4,171.66.13.53,"Mozilla/5.0 (Macintosh; Intel Mac OS X 10_15_7) AppleWebKit/537.36 (KHTML, like Gecko) Chrome/118.0.0.0 Safari/537.36",Macintosh,Chrome,118.0.0.0,OS X,10_15_7,,"en-US,en;q=0.9",,,,,,,,,,,,,,,,,,,
32,,,html-keyboard-response,33,182412,0.0-4.0-0.0,1,1,2023-10-30 23:52:03,ec53d80472dcc330b6ccf60011d5c0d4,171.66.13.53,"Mozilla/5.0 (Macintosh; Intel Mac OS X 10_15_7) AppleWebKit/537.36 (KHTML, like Gecko) Chrome/118.0.0.0 Safari/537.36",Macintosh,Chrome,118.0.0.0,OS X,10_15_7,,"en-US,en;q=0.9",,,[object Object],,,,,,,,,,,,,,,,
33,,1173.0,audio-keyboard-response,34,183590,0.0-4.0-1.0,1,1,2023-10-30 23:52:03,ec53d80472dcc330b6ccf60011d5c0d4,171.66.13.53,"Mozilla/5.0 (Macintosh; Intel Mac OS X 10_15_7) AppleWebKit/537.36 (KHTML, like Gecko) Chrome/118.0.0.0 Safari/537.36",Macintosh,Chrome,118.0.0.0,OS X,10_15_7,,"en-US,en;q=0.9",sound/400,80.0,,generalization,space,positive,0.0,700.0,300.0,,,False,400.0,100.0,0.0,False,,,
34,,,html-keyboard-response,35,184594,0.0-4.0-2.0,1,1,2023-10-30 23:52:03,ec53d80472dcc330b6ccf60011d5c0d4,171.66.13.53,"Mozilla/5.0 (Macintosh; Intel Mac OS X 10_15_7) AppleWebKit/537.36 (KHTML, like Gecko) Chrome/118.0.0.0 Safari/537.36",Macintosh,Chrome,118.0.0.0,OS X,10_15_7,,"en-US,en;q=0.9",,,,,,,,,,,,,,,,,,,
35,,,html-keyboard-response,36,185098,0.0-4.0-0.1,1,1,2023-10-30 23:52:03,ec53d80472dcc330b6ccf60011d5c0d4,171.66.13.53,"Mozilla/5.0 (Macintosh; Intel Mac OS X 10_15_7) AppleWebKit/537.36 (KHTML, like Gecko) Chrome/118.0.0.0 Safari/537.36",Macintosh,Chrome,118.0.0.0,OS X,10_15_7,,"en-US,en;q=0.9",,,[object Object],,,,,,,,,,,,,,,,
36,,1003.0,audio-keyboard-response,37,186104,0.0-4.0-1.1,1,1,2023-10-30 23:52:03,ec53d80472dcc330b6ccf60011d5c0d4,171.66.13.53,"Mozilla/5.0 (Macintosh; Intel Mac OS X 10_15_7) AppleWebKit/537.36 (KHTML, like Gecko) Chrome/118.0.0.0 Safari/537.36",Macintosh,Chrome,118.0.0.0,OS X,10_15_7,,"en-US,en;q=0.9",sound/680,80.0,,generalization,space,negative,0.0,700.0,300.0,,,False,680.0,-20.0,1.0,True,,,
37,,,html-keyboard-response,38,187112,0.0-4.0-2.1,1,1,2023-10-30 23:52:03,ec53d80472dcc330b6ccf60011d5c0d4,171.66.13.53,"Mozilla/5.0 (Macintosh; Intel Mac OS X 10_15_7) AppleWebKit/537.36 (KHTML, like Gecko) Chrome/118.0.0.0 Safari/537.36",Macintosh,Chrome,118.0.0.0,OS X,10_15_7,,"en-US,en;q=0.9",,,,,,,,,,,,,,,,,,,
38,,,html-keyboard-response,39,187616,0.0-4.0-0.2,1,1,2023-10-30 23:52:03,ec53d80472dcc330b6ccf60011d5c0d4,171.66.13.53,"Mozilla/5.0 (Macintosh; Intel Mac OS X 10_15_7) AppleWebKit/537.36 (KHTML, like Gecko) Chrome/118.0.0.0 Safari/537.36",Macintosh,Chrome,118.0.0.0,OS X,10_15_7,,"en-US,en;q=0.9",,,[object Object],,,,,,,,,,,,,,,,
39,,427.0,audio-keyboard-response,40,188048,0.0-4.0-1.2,1,1,2023-10-30 23:52:03,ec53d80472dcc330b6ccf60011d5c0d4,171.66.13.53,"Mozilla/5.0 (Macintosh; Intel Mac OS X 10_15_7) AppleWebKit/537.36 (KHTML, like Gecko) Chrome/118.0.0.0 Safari/537.36",Macintosh,Chrome,118.0.0.0,OS X,10_15_7,,"en-US,en;q=0.9",sound/300,80.0,,generalization,q,positive,0.0,700.0,300.0,,,False,,0.0,2.0,False,,,
40,,,html-keyboard-response,41,189054,0.0-4.0-2.2,1,1,2023-10-30 23:52:03,ec53d80472dcc330b6ccf60011d5c0d4,171.66.13.53,"Mozilla/5.0 (Macintosh; Intel Mac OS X 10_15_7) AppleWebKit/537.36 (KHTML, like Gecko) Chrome/118.0.0.0 Safari/537.36",Macintosh,Chrome,118.0.0.0,OS X,10_15_7,,"en-US,en;q=0.9",,,,,,,,,,,,,,,,,,,
41,,,html-keyboard-response,42,189562,0.0-4.0-0.3,1,1,2023-10-30 23:52:03,ec53d80472dcc330b6ccf60011d5c0d4,171.66.13.53,"Mozilla/5.0 (Macintosh; Intel Mac OS X 10_15_7) AppleWebKit/537.36 (KHTML, like Gecko) Chrome/118.0.0.0 Safari/537.36",Macintosh,Chrome,118.0.0.0,OS X,10_15_7,,"en-US,en;q=0.9",,,[object Object],,,,,,,,,,,,,,,,
42,,1765.0,audio-keyboard-response,43,191331,0.0-4.0-1.3,1,1,2023-10-30 23:52:03,ec53d80472dcc330b6ccf60011d5c0d4,171.66.13.53,"Mozilla/5.0 (Macintosh; Intel Mac OS X 10_15_7) AppleWebKit/537.36 (KHTML, like Gecko) Chrome/118.0.0.0 Safari/537.36",Macintosh,Chrome,118.0.0.0,OS X,10_15_7,,"en-US,en;q=0.9",sound/720,80.0,,generalization,space,negative,0.0,700.0,300.0,,,False,720.0,20.0,3.0,True,,,
43,,,html-keyboard-response,44,192342,0.0-4.0-2.3,1,1,2023-10-30 23:52:03,ec53d80472dcc330b6ccf60011d5c0d4,171.66.13.53,"Mozilla/5.0 (Macintosh; Intel Mac OS X 10_15_7) AppleWebKit/537.36 (KHTML, like Gecko) Chrome/118.0.0.0 Safari/537.36",Macintosh,Chrome,118.0.0.0,OS X,10_15_7,,"en-US,en;q=0.9",,,,,,,,,,,,,,,,,,,
44,,,html-keyboard-response,45,192850,0.0-4.0-0.4,1,1,2023-10-30 23:52:03,ec53d80472dcc330b6ccf60011d5c0d4,171.66.13.53,"Mozilla/5.0 (Macintosh; Intel Mac OS X 10_15_7) AppleWebKit/537.36 (KHTML, like Gecko) Chrome/118.0.0.0 Safari/537.36",Macintosh,Chrome,118.0.0.0,OS X,10_15_7,,"en-US,en;q=0.9",,,[object Object],,,,,,,,,,,,,,,,
45,,27.0,audio-keyboard-response,46,192878,0.0-4.0-1.4,1,1,2023-10-30 23:52:03,ec53d80472dcc330b6ccf60011d5c0d4,171.66.13.53,"Mozilla/5.0 (Macintosh; Intel Mac OS X 10_15_7) AppleWebKit/537.36 (KHTML, like Gecko) Chrome/118.0.0.0 Safari/537.36",Macintosh,Chrome,118.0.0.0,OS X,10_15_7,,"en-US,en;q=0.9",sound/800,80.0,,generalization,space,negative,0.0,700.0,300.0,,,False,800.0,100.0,4.0,True,,,
46,,,html-keyboard-response,47,193882,0.0-4.0-2.4,1,1,2023-10-30 23:52:03,ec53d80472dcc330b6ccf60011d5c0d4,171.66.13.53,"Mozilla/5.0 (Macintosh; Intel Mac OS X 10_15_7) AppleWebKit/537.36 (KHTML, like Gecko) Chrome/118.0.0.0 Safari/537.36",Macintosh,Chrome,118.0.0.0,OS X,10_15_7,,"en-US,en;q=0.9",,,,,,,,,,,,,,,,,,,
47,,,html-keyboard-response,48,194386,0.0-4.0-0.5,1,1,2023-10-30 23:52:03,ec53d80472dcc330b6ccf60011d5c0d4,171.66.13.53,"Mozilla/5.0 (Macintosh; Intel Mac OS X 10_15_7) AppleWebKit/537.36 (KHTML, like Gecko) Chrome/118.0.0.0 Safari/537.36",Macintosh,Chrome,118.0.0.0,OS X,10_15_7,,"en-US,en;q=0.9",,,[object Object],,,,,,,,,,,,,,,,
48,,85.0,audio-keyboard-response,49,194472,0.0-4.0-1.5,1,1,2023-10-30 23:52:03,ec53d80472dcc330b6ccf60011d5c0d4,171.66.13.53,"Mozilla/5.0 (Macintosh; Intel Mac OS X 10_15_7) AppleWebKit/537.36 (KHTML, like Gecko) Chrome/118.0.0.0 Safari/537.36",Macintosh,Chrome,118.0.0.0,OS X,10_15_7,,"en-US,en;q=0.9",sound/700,81.0,,generalization,p,negative,0.0,700.0,300.0,,,False,,0.0,5.0,False,,,
49,,,html-keyboard-response,50,195479,0.0-4.0-2.5,1,1,2023-10-30 23:52:03,ec53d80472dcc330b6ccf60011d5c0d4,171.66.13.53,"Mozilla/5.0 (Macintosh; Intel Mac OS X 10_15_7) AppleWebKit/537.36 (KHTML, like Gecko) Chrome/118.0.0.0 Safari/537.36",Macintosh,Chrome,118.0.0.0,OS X,10_15_7,,"en-US,en;q=0.9",,,,,,,,,,,,,,,,,,,
50,,,html-keyboard-response,51,195987,0.0-4.0-0.6,1,1,2023-10-30 23:52:03,ec53d80472dcc330b6ccf60011d5c0d4,171.66.13.53,"Mozilla/5.0 (Macintosh; Intel Mac OS X 10_15_7) AppleWebKit/537.36 (KHTML, like Gecko) Chrome/118.0.0.0 Safari/537.36",Macintosh,Chrome,118.0.0.0,OS X,10_15_7,,"en-US,en;q=0.9",,,[object Object],,,,,,,,,,,,,,,,
51,,773.0,audio-keyboard-response,52,196759,0.0-4.0-1.6,1,1,2023-10-30 23:52:03,ec53d80472dcc330b6ccf60011d5c0d4,171.66.13.53,"Mozilla/5.0 (Macintosh; Intel Mac OS X 10_15_7) AppleWebKit/537.36 (KHTML, like Gecko) Chrome/118.0.0.0 Safari/537.36",Macintosh,Chrome,118.0.0.0,OS X,10_15_7,,"en-US,en;q=0.9",sound/320,81.0,,generalization,space,positive,0.0,700.0,300.0,,,False,320.0,20.0,6.0,True,,,
52,,,html-keyboard-response,53,197767,0.0-4.0-2.6,1,1,2023-10-30 23:52:03,ec53d80472dcc330b6ccf60011d5c0d4,171.66.13.53,"Mozilla/5.0 (Macintosh; Intel Mac OS X 10_15_7) AppleWebKit/537.36 (KHTML, like Gecko) Chrome/118.0.0.0 Safari/537.36",Macintosh,Chrome,118.0.0.0,OS X,10_15_7,,"en-US,en;q=0.9",,,,,,,,,,,,,,,,,,,
53,,,html-keyboard-response,54,198269,0.0-4.0-0.7,1,1,2023-10-30 23:52:03,ec53d80472dcc330b6ccf60011d5c0d4,171.66.13.53,"Mozilla/5.0 (Macintosh; Intel Mac OS X 10_15_7) AppleWebKit/537.36 (KHTML, like Gecko) Chrome/118.0.0.0 Safari/537.36",Macintosh,Chrome,118.0.0.0,OS X,10_15_7,,"en-US,en;q=0.9",,,[object Object],,,,,,,,,,,,,,,,
54,,1024.0,audio-keyboard-response,55,199297,0.0-4.0-1.7,1,1,2023-10-30 23:52:03,ec53d80472dcc330b6ccf60011d5c0d4,171.66.13.53,"Mozilla/5.0 (Macintosh; Intel Mac OS X 10_15_7) AppleWebKit/537.36 (KHTML, like Gecko) Chrome/118.0.0.0 Safari/537.36",Macintosh,Chrome,118.0.0.0,OS X,10_15_7,,"en-US,en;q=0.9",sound/600,80.0,,generalization,space,negative,0.0,700.0,300.0,,,False,600.0,-100.0,7.0,True,,,
55,,,html-keyboard-response,56,200303,0.0-4.0-2.7,1,1,2023-10-30 23:52:03,ec53d80472dcc330b6ccf60011d5c0d4,171.66.13.53,"Mozilla/5.0 (Macintosh; Intel Mac OS X 10_15_7) AppleWebKit/537.36 (KHTML, like Gecko) Chrome/118.0.0.0 Safari/537.36",Macintosh,Chrome,118.0.0.0,OS X,10_15_7,,"en-US,en;q=0.9",,,,,,,,,,,,,,,,,,,
56,,,html-keyboard-response,57,200811,0.0-4.0-0.8,1,1,2023-10-30 23:52:03,ec53d80472dcc330b6ccf60011d5c0d4,171.66.13.53,"Mozilla/5.0 (Macintosh; Intel Mac OS X 10_15_7) AppleWebKit/537.36 (KHTML, like Gecko) Chrome/118.0.0.0 Safari/537.36",Macintosh,Chrome,118.0.0.0,OS X,10_15_7,,"en-US,en;q=0.9",,,[object Object],,,,,,,,,,,,,,,,
57,,,audio-keyboard-response,58,203314,0.0-4.0-1.8,1,1,2023-10-30 23:52:03,ec53d80472dcc330b6ccf60011d5c0d4,171.66.13.53,"Mozilla/5.0 (Macintosh; Intel Mac OS X 10_15_7) AppleWebKit/537.36 (KHTML, like Gecko) Chrome/118.0.0.0 Safari/537.36",Macintosh,Chrome,118.0.0.0,OS X,10_15_7,,"en-US,en;q=0.9",sound/280,,,generalization,space,positive,0.0,700.0,300.0,,,False,280.0,-20.0,8.0,,,,
58,,,html-keyboard-response,59,204317,0.0-4.0-2.8,1,1,2023-10-30 23:52:03,ec53d80472dcc330b6ccf60011d5c0d4,171.66.13.53,"Mozilla/5.0 (Macintosh; Intel Mac OS X 10_15_7) AppleWebKit/537.36 (KHTML, like Gecko) Chrome/118.0.0.0 Safari/537.36",Macintosh,Chrome,118.0.0.0,OS X,10_15_7,,"en-US,en;q=0.9",<p style='font-weight:bold; color: red; font-size=100%'> - $0.40<br>RESPOND FASTER!</p>,,,,,,,,,,,,,,,,,,
59,,,html-keyboard-response,60,204823,0.0-4.0-0.9,1,1,2023-10-30 23:52:03,ec53d80472dcc330b6ccf60011d5c0d4,171.66.13.53,"Mozilla/5.0 (Macintosh; Intel Mac OS X 10_15_7) AppleWebKit/537.36 (KHTML, like Gecko) Chrome/118.0.0.0 Safari/537.36",Macintosh,Chrome,118.0.0.0,OS X,10_15_7,,"en-US,en;q=0.9",,,[object Object],,,,,,,,,,,,,,,,
60,,,audio-keyboard-response,61,207329,0.0-4.0-1.9,1,1,2023-10-30 23:52:03,ec53d80472dcc330b6ccf60011d5c0d4,171.66.13.53,"Mozilla/5.0 (Macintosh; Intel Mac OS X 10_15_7) AppleWebKit/537.36 (KHTML, like Gecko) Chrome/118.0.0.0 Safari/537.36",Macintosh,Chrome,118.0.0.0,OS X,10_15_7,,"en-US,en;q=0.9",sound/200,,,generalization,space,positive,0.0,700.0,300.0,,,False,200.0,-100.0,9.0,,,,
61,,,html-keyboard-response,62,208334,0.0-4.0-2.9,1,1,2023-10-30 23:52:03,ec53d80472dcc330b6ccf60011d5c0d4,171.66.13.53,"Mozilla/5.0 (Macintosh; Intel Mac OS X 10_15_7) AppleWebKit/537.36 (KHTML, like Gecko) Chrome/118.0.0.0 Safari/537.36",Macintosh,Chrome,118.0.0.0,OS X,10_15_7,,"en-US,en;q=0.9",<p style='font-weight:bold; color: red; font-size=100%'> - $0.40<br>RESPOND FASTER!</p>,,,,,,,,,,,,,,,,,,
62,,1762.0,html-keyboard-response,63,210098,0.0-5.0,1,1,2023-10-30 23:52:03,ec53d80472dcc330b6ccf60011d5c0d4,171.66.13.53,"Mozilla/5.0 (Macintosh; Intel Mac OS X 10_15_7) AppleWebKit/537.36 (KHTML, like Gecko) Chrome/118.0.0.0 Safari/537.36",Macintosh,Chrome,118.0.0.0,OS X,10_15_7,,"en-US,en;q=0.9",bonus earned during this period: $0.00<br><br>Press any key to continue.,32.0,,,,,,,,,,,,,,,,,
63,"[{""page_index"":0,""viewing_time"":1273}]",1273.0,instructions,64,211373,0.0-6.0,1,1,2023-10-30 23:52:03,ec53d80472dcc330b6ccf60011d5c0d4,171.66.13.53,"Mozilla/5.0 (Macintosh; Intel Mac OS X 10_15_7) AppleWebKit/537.36 (KHTML, like Gecko) Chrome/118.0.0.0 Safari/537.36",Macintosh,Chrome,118.0.0.0,OS X,10_15_7,,"en-US,en;q=0.9",,,,,,,,,,,,,,,,,,,
64,,,html-keyboard-response,65,212786,0.0-7.0-0.0,1,1,2023-10-30 23:52:03,ec53d80472dcc330b6ccf60011d5c0d4,171.66.13.53,"Mozilla/5.0 (Macintosh; Intel Mac OS X 10_15_7) AppleWebKit/537.36 (KHTML, like Gecko) Chrome/118.0.0.0 Safari/537.36",Macintosh,Chrome,118.0.0.0,OS X,10_15_7,,"en-US,en;q=0.9","<div style=""font-size:120%; top:20%""></div>",,[object Object],,,,,,,,,,,,,,,,
65,,1675.0,audio-keyboard-response,66,215292,0.0-7.0-1.0,1,1,2023-10-30 23:52:03,ec53d80472dcc330b6ccf60011d5c0d4,171.66.13.53,"Mozilla/5.0 (Macintosh; Intel Mac OS X 10_15_7) AppleWebKit/537.36 (KHTML, like Gecko) Chrome/118.0.0.0 Safari/537.36",Macintosh,Chrome,118.0.0.0,OS X,10_15_7,,"en-US,en;q=0.9",sound/700,80.0,,acquisition,,negative,1.0,700.0,300.0,,700.0,False,,,,,,,
66,,,html-keyboard-response,67,216405,0.0-7.0-2.0,1,1,2023-10-30 23:52:03,ec53d80472dcc330b6ccf60011d5c0d4,171.66.13.53,"Mozilla/5.0 (Macintosh; Intel Mac OS X 10_15_7) AppleWebKit/537.36 (KHTML, like Gecko) Chrome/118.0.0.0 Safari/537.36",Macintosh,Chrome,118.0.0.0,OS X,10_15_7,,"en-US,en;q=0.9","<font size=""100%"" weight=bold> - $0.04</font>",,,,,,,,,,,,,,,,,,
67,,,html-keyboard-response,68,217912,0.0-7.0-0.1,1,1,2023-10-30 23:52:03,ec53d80472dcc330b6ccf60011d5c0d4,171.66.13.53,"Mozilla/5.0 (Macintosh; Intel Mac OS X 10_15_7) AppleWebKit/537.36 (KHTML, like Gecko) Chrome/118.0.0.0 Safari/537.36",Macintosh,Chrome,118.0.0.0,OS X,10_15_7,,"en-US,en;q=0.9","<div style=""font-size:120%; top:20%""></div>",,[object Object],,,,,,,,,,,,,,,,
68,,,audio-keyboard-response,69,220418,0.0-7.0-1.1,1,1,2023-10-30 23:52:03,ec53d80472dcc330b6ccf60011d5c0d4,171.66.13.53,"Mozilla/5.0 (Macintosh; Intel Mac OS X 10_15_7) AppleWebKit/537.36 (KHTML, like Gecko) Chrome/118.0.0.0 Safari/537.36",Macintosh,Chrome,118.0.0.0,OS X,10_15_7,,"en-US,en;q=0.9",sound/300,,,acquisition,q,positive,1.0,700.0,300.0,,300.0,,,,,,,,
69,,,html-keyboard-response,70,221531,0.0-7.0-2.1,1,1,2023-10-30 23:52:03,ec53d80472dcc330b6ccf60011d5c0d4,171.66.13.53,"Mozilla/5.0 (Macintosh; Intel Mac OS X 10_15_7) AppleWebKit/537.36 (KHTML, like Gecko) Chrome/118.0.0.0 Safari/537.36",Macintosh,Chrome,118.0.0.0,OS X,10_15_7,,"en-US,en;q=0.9","<font size=""100%"" weight=bold> + $0.00 </font>",,,,,,,,,,,,,,,,,,
70,,,html-keyboard-response,71,223041,0.0-7.0-0.2,1,1,2023-10-30 23:52:03,ec53d80472dcc330b6ccf60011d5c0d4,171.66.13.53,"Mozilla/5.0 (Macintosh; Intel Mac OS X 10_15_7) AppleWebKit/537.36 (KHTML, like Gecko) Chrome/118.0.0.0 Safari/537.36",Macintosh,Chrome,118.0.0.0,OS X,10_15_7,,"en-US,en;q=0.9","<div style=""font-size:120%; top:20%""></div>",,[object Object],,,,,,,,,,,,,,,,
71,,101.0,audio-keyboard-response,72,223143,0.0-7.0-1.2,1,1,2023-10-30 23:52:03,ec53d80472dcc330b6ccf60011d5c0d4,171.66.13.53,"Mozilla/5.0 (Macintosh; Intel Mac OS X 10_15_7) AppleWebKit/537.36 (KHTML, like Gecko) Chrome/118.0.0.0 Safari/537.36",Macintosh,Chrome,118.0.0.0,OS X,10_15_7,,"en-US,en;q=0.9",sound/500,80.0,,acquisition,,neutral,1.0,700.0,300.0,,500.0,,,,,,,,
72,,,html-keyboard-response,73,224250,0.0-7.0-2.2,1,1,2023-10-30 23:52:03,ec53d80472dcc330b6ccf60011d5c0d4,171.66.13.53,"Mozilla/5.0 (Macintosh; Intel Mac OS X 10_15_7) AppleWebKit/537.36 (KHTML, like Gecko) Chrome/118.0.0.0 Safari/537.36",Macintosh,Chrome,118.0.0.0,OS X,10_15_7,,"en-US,en;q=0.9","<font size=""100%""></font>",,,,,,,,,,,,,,,,,,
73,,,html-keyboard-response,74,225759,0.0-7.0-0.3,1,1,2023-10-30 23:52:03,ec53d80472dcc330b6ccf60011d5c0d4,171.66.13.53,"Mozilla/5.0 (Macintosh; Intel Mac OS X 10_15_7) AppleWebKit/537.36 (KHTML, like Gecko) Chrome/118.0.0.0 Safari/537.36",Macintosh,Chrome,118.0.0.0,OS X,10_15_7,,"en-US,en;q=0.9","<div style=""font-size:120%; top:20%""></div>",,[object Object],,,,,,,,,,,,,,,,
74,,192.0,audio-keyboard-response,75,228266,0.0-7.0-1.3,1,1,2023-10-30 23:52:03,ec53d80472dcc330b6ccf60011d5c0d4,171.66.13.53,"Mozilla/5.0 (Macintosh; Intel Mac OS X 10_15_7) AppleWebKit/537.36 (KHTML, like Gecko) Chrome/118.0.0.0 Safari/537.36",Macintosh,Chrome,118.0.0.0,OS X,10_15_7,,"en-US,en;q=0.9",sound/300,80.0,,acquisition,,positive,1.0,700.0,300.0,,300.0,True,,,,,,,
75,,,html-keyboard-response,76,229376,0.0-7.0-2.3,1,1,2023-10-30 23:52:03,ec53d80472dcc330b6ccf60011d5c0d4,171.66.13.53,"Mozilla/5.0 (Macintosh; Intel Mac OS X 10_15_7) AppleWebKit/537.36 (KHTML, like Gecko) Chrome/118.0.0.0 Safari/537.36",Macintosh,Chrome,118.0.0.0,OS X,10_15_7,,"en-US,en;q=0.9","<font size=""100%"" weight=bold> + $0.04</font>",,,,,,,,,,,,,,,,,,
76,,,html-keyboard-response,77,230888,0.0-7.0-0.4,1,1,2023-10-30 23:52:03,ec53d80472dcc330b6ccf60011d5c0d4,171.66.13.53,"Mozilla/5.0 (Macintosh; Intel Mac OS X 10_15_7) AppleWebKit/537.36 (KHTML, like Gecko) Chrome/118.0.0.0 Safari/537.36",Macintosh,Chrome,118.0.0.0,OS X,10_15_7,,"en-US,en;q=0.9","<div style=""font-size:120%; top:20%""></div>",,[object Object],,,,,,,,,,,,,,,,
77,,133.0,audio-keyboard-response,78,231020,0.0-7.0-1.4,1,1,2023-10-30 23:52:03,ec53d80472dcc330b6ccf60011d5c0d4,171.66.13.53,"Mozilla/5.0 (Macintosh; Intel Mac OS X 10_15_7) AppleWebKit/537.36 (KHTML, like Gecko) Chrome/118.0.0.0 Safari/537.36",Macintosh,Chrome,118.0.0.0,OS X,10_15_7,,"en-US,en;q=0.9",sound/700,80.0,,acquisition,p,negative,1.0,700.0,300.0,,700.0,,,,,,,,
78,,,html-keyboard-response,79,232128,0.0-7.0-2.4,1,1,2023-10-30 23:52:03,ec53d80472dcc330b6ccf60011d5c0d4,171.66.13.53,"Mozilla/5.0 (Macintosh; Intel Mac OS X 10_15_7) AppleWebKit/537.36 (KHTML, like Gecko) Chrome/118.0.0.0 Safari/537.36",Macintosh,Chrome,118.0.0.0,OS X,10_15_7,,"en-US,en;q=0.9","<font size=""100%"" weight=bold> - $0.04</font>",,,,,,,,,,,,,,,,,,
79,,,html-keyboard-response,80,233643,0.0-7.0-0.5,1,1,2023-10-30 23:52:03,ec53d80472dcc330b6ccf60011d5c0d4,171.66.13.53,"Mozilla/5.0 (Macintosh; Intel Mac OS X 10_15_7) AppleWebKit/537.36 (KHTML, like Gecko) Chrome/118.0.0.0 Safari/537.36",Macintosh,Chrome,118.0.0.0,OS X,10_15_7,,"en-US,en;q=0.9","<div style=""font-size:120%; top:20%""></div>",,[object Object],,,,,,,,,,,,,,,,
80,,1216.0,audio-keyboard-response,81,234861,0.0-7.0-1.5,1,1,2023-10-30 23:52:03,ec53d80472dcc330b6ccf60011d5c0d4,171.66.13.53,"Mozilla/5.0 (Macintosh; Intel Mac OS X 10_15_7) AppleWebKit/537.36 (KHTML, like Gecko) Chrome/118.0.0.0 Safari/537.36",Macintosh,Chrome,118.0.0.0,OS X,10_15_7,,"en-US,en;q=0.9",sound/700,81.0,,acquisition,p,negative,1.0,700.0,300.0,,700.0,,,,,,,,
81,,,html-keyboard-response,82,235975,0.0-7.0-2.5,1,1,2023-10-30 23:52:03,ec53d80472dcc330b6ccf60011d5c0d4,171.66.13.53,"Mozilla/5.0 (Macintosh; Intel Mac OS X 10_15_7) AppleWebKit/537.36 (KHTML, like Gecko) Chrome/118.0.0.0 Safari/537.36",Macintosh,Chrome,118.0.0.0,OS X,10_15_7,,"en-US,en;q=0.9","<font size=""100%"" weight=bold> - $0.04</font>",,,,,,,,,,,,,,,,,,
82,,,html-keyboard-response,83,237487,0.0-7.0-0.6,1,1,2023-10-30 23:52:03,ec53d80472dcc330b6ccf60011d5c0d4,171.66.13.53,"Mozilla/5.0 (Macintosh; Intel Mac OS X 10_15_7) AppleWebKit/537.36 (KHTML, like Gecko) Chrome/118.0.0.0 Safari/537.36",Macintosh,Chrome,118.0.0.0,OS X,10_15_7,,"en-US,en;q=0.9","<div style=""font-size:120%; top:20%""></div>",,[object Object],,,,,,,,,,,,,,,,
83,,43.0,audio-keyboard-response,84,237537,0.0-7.0-1.6,1,1,2023-10-30 23:52:03,ec53d80472dcc330b6ccf60011d5c0d4,171.66.13.53,"Mozilla/5.0 (Macintosh; Intel Mac OS X 10_15_7) AppleWebKit/537.36 (KHTML, like Gecko) Chrome/118.0.0.0 Safari/537.36",Macintosh,Chrome,118.0.0.0,OS X,10_15_7,,"en-US,en;q=0.9",sound/500,80.0,,acquisition,,neutral,1.0,700.0,300.0,,500.0,,,,,,,,
84,,,html-keyboard-response,85,238642,0.0-7.0-2.6,1,1,2023-10-30 23:52:03,ec53d80472dcc330b6ccf60011d5c0d4,171.66.13.53,"Mozilla/5.0 (Macintosh; Intel Mac OS X 10_15_7) AppleWebKit/537.36 (KHTML, like Gecko) Chrome/118.0.0.0 Safari/537.36",Macintosh,Chrome,118.0.0.0,OS X,10_15_7,,"en-US,en;q=0.9","<font size=""100%""></font>",,,,,,,,,,,,,,,,,,
85,,,html-keyboard-response,86,240153,0.0-7.0-0.7,1,1,2023-10-30 23:52:03,ec53d80472dcc330b6ccf60011d5c0d4,171.66.13.53,"Mozilla/5.0 (Macintosh; Intel Mac OS X 10_15_7) AppleWebKit/537.36 (KHTML, like Gecko) Chrome/118.0.0.0 Safari/537.36",Macintosh,Chrome,118.0.0.0,OS X,10_15_7,,"en-US,en;q=0.9","<div style=""font-size:120%; top:20%""></div>",,[object Object],,,,,,,,,,,,,,,,
86,,0.0,audio-keyboard-response,87,240159,0.0-7.0-1.7,1,1,2023-10-30 23:52:03,ec53d80472dcc330b6ccf60011d5c0d4,171.66.13.53,"Mozilla/5.0 (Macintosh; Intel Mac OS X 10_15_7) AppleWebKit/537.36 (KHTML, like Gecko) Chrome/118.0.0.0 Safari/537.36",Macintosh,Chrome,118.0.0.0,OS X,10_15_7,,"en-US,en;q=0.9",sound/300,80.0,,acquisition,q,positive,1.0,700.0,300.0,,300.0,,,,,,,,
87,,,html-keyboard-response,88,241266,0.0-7.0-2.7,1,1,2023-10-30 23:52:03,ec53d80472dcc330b6ccf60011d5c0d4,171.66.13.53,"Mozilla/5.0 (Macintosh; Intel Mac OS X 10_15_7) AppleWebKit/537.36 (KHTML, like Gecko) Chrome/118.0.0.0 Safari/537.36",Macintosh,Chrome,118.0.0.0,OS X,10_15_7,,"en-US,en;q=0.9","<font size=""100%"" weight=bold> + $0.00 </font>",,,,,,,,,,,,,,,,,,
88,,,html-keyboard-response,89,242776,0.0-7.0-0.8,1,1,2023-10-30 23:52:03,ec53d80472dcc330b6ccf60011d5c0d4,171.66.13.53,"Mozilla/5.0 (Macintosh; Intel Mac OS X 10_15_7) AppleWebKit/537.36 (KHTML, like Gecko) Chrome/118.0.0.0 Safari/537.36",Macintosh,Chrome,118.0.0.0,OS X,10_15_7,,"en-US,en;q=0.9","<div style=""font-size:120%; top:20%""></div>",,[object Object],,,,,,,,,,,,,,,,
89,,480.0,audio-keyboard-response,90,245287,0.0-7.0-1.8,1,1,2023-10-30 23:52:03,ec53d80472dcc330b6ccf60011d5c0d4,171.66.13.53,"Mozilla/5.0 (Macintosh; Intel Mac OS X 10_15_7) AppleWebKit/537.36 (KHTML, like Gecko) Chrome/118.0.0.0 Safari/537.36",Macintosh,Chrome,118.0.0.0,OS X,10_15_7,,"en-US,en;q=0.9",sound/300,80.0,,acquisition,,positive,1.0,700.0,300.0,,300.0,True,,,,,,,
90,,,html-keyboard-response,91,246399,0.0-7.0-2.8,1,1,2023-10-30 23:52:03,ec53d80472dcc330b6ccf60011d5c0d4,171.66.13.53,"Mozilla/5.0 (Macintosh; Intel Mac OS X 10_15_7) AppleWebKit/537.36 (KHTML, like Gecko) Chrome/118.0.0.0 Safari/537.36",Macintosh,Chrome,118.0.0.0,OS X,10_15_7,,"en-US,en;q=0.9","<font size=""100%"" weight=bold> + $0.04</font>",,,,,,,,,,,,,,,,,,
91,,,html-keyboard-response,92,247912,0.0-7.0-0.9,1,1,2023-10-30 23:52:03,ec53d80472dcc330b6ccf60011d5c0d4,171.66.13.53,"Mozilla/5.0 (Macintosh; Intel Mac OS X 10_15_7) AppleWebKit/537.36 (KHTML, like Gecko) Chrome/118.0.0.0 Safari/537.36",Macintosh,Chrome,118.0.0.0,OS X,10_15_7,,"en-US,en;q=0.9","<div style=""font-size:120%; top:20%""></div>",,[object Object],,,,,,,,,,,,,,,,
92,,544.0,audio-keyboard-response,93,250419,0.0-7.0-1.9,1,1,2023-10-30 23:52:03,ec53d80472dcc330b6ccf60011d5c0d4,171.66.13.53,"Mozilla/5.0 (Macintosh; Intel Mac OS X 10_15_7) AppleWebKit/537.36 (KHTML, like Gecko) Chrome/118.0.0.0 Safari/537.36",Macintosh,Chrome,118.0.0.0,OS X,10_15_7,,"en-US,en;q=0.9",sound/700,80.0,,acquisition,,negative,1.0,700.0,300.0,,700.0,False,,,,,,,
93,,,html-keyboard-response,94,251530,0.0-7.0-2.9,1,1,2023-10-30 23:52:03,ec53d80472dcc330b6ccf60011d5c0d4,171.66.13.53,"Mozilla/5.0 (Macintosh; Intel Mac OS X 10_15_7) AppleWebKit/537.36 (KHTML, like Gecko) Chrome/118.0.0.0 Safari/537.36",Macintosh,Chrome,118.0.0.0,OS X,10_15_7,,"en-US,en;q=0.9","<font size=""100%"" weight=bold> - $0.04</font>",,,,,,,,,,,,,,,,,,
94,,2026.0,html-keyboard-response,95,254067,0.0-8.0,1,1,2023-10-30 23:52:03,ec53d80472dcc330b6ccf60011d5c0d4,171.66.13.53,"Mozilla/5.0 (Macintosh; Intel Mac OS X 10_15_7) AppleWebKit/537.36 (KHTML, like Gecko) Chrome/118.0.0.0 Safari/537.36",Macintosh,Chrome,118.0.0.0,OS X,10_15_7,,"en-US,en;q=0.9",The total bonus amount of bonus you earned in this last period was $0.00.<br> Press any key to continue to the next step.,32.0,,,,,,,,,,,,,,,,,
95,"[{""page_index"":0,""viewing_time"":1855}]",1855.0,instructions,96,255924,0.0-9.0,1,1,2023-10-30 23:52:03,ec53d80472dcc330b6ccf60011d5c0d4,171.66.13.53,"Mozilla/5.0 (Macintosh; Intel Mac OS X 10_15_7) AppleWebKit/537.36 (KHTML, like Gecko) Chrome/118.0.0.0 Safari/537.36",Macintosh,Chrome,118.0.0.0,OS X,10_15_7,,"en-US,en;q=0.9",,,,,,,,,,,,,,,,,,,
96,,,html-keyboard-response,97,256833,0.0-10.0-0.0,1,1,2023-10-30 23:52:03,ec53d80472dcc330b6ccf60011d5c0d4,171.66.13.53,"Mozilla/5.0 (Macintosh; Intel Mac OS X 10_15_7) AppleWebKit/537.36 (KHTML, like Gecko) Chrome/118.0.0.0 Safari/537.36",Macintosh,Chrome,118.0.0.0,OS X,10_15_7,,"en-US,en;q=0.9",,,[object Object],,,,,,,,,,,,,,,,
97,,1099.0,audio-keyboard-response,98,257938,0.0-10.0-1.0,1,1,2023-10-30 23:52:03,ec53d80472dcc330b6ccf60011d5c0d4,171.66.13.53,"Mozilla/5.0 (Macintosh; Intel Mac OS X 10_15_7) AppleWebKit/537.36 (KHTML, like Gecko) Chrome/118.0.0.0 Safari/537.36",Macintosh,Chrome,118.0.0.0,OS X,10_15_7,,"en-US,en;q=0.9",sound/800,80.0,,generalization,space,negative,1.0,700.0,300.0,,,False,800.0,100.0,10.0,True,,,
98,,,html-keyboard-response,99,258946,0.0-10.0-2.0,1,1,2023-10-30 23:52:03,ec53d80472dcc330b6ccf60011d5c0d4,171.66.13.53,"Mozilla/5.0 (Macintosh; Intel Mac OS X 10_15_7) AppleWebKit/537.36 (KHTML, like Gecko) Chrome/118.0.0.0 Safari/537.36",Macintosh,Chrome,118.0.0.0,OS X,10_15_7,,"en-US,en;q=0.9",,,,,,,,,,,,,,,,,,,
99,,,html-keyboard-response,100,259450,0.0-10.0-0.1,1,1,2023-10-30 23:52:03,ec53d80472dcc330b6ccf60011d5c0d4,171.66.13.53,"Mozilla/5.0 (Macintosh; Intel Mac OS X 10_15_7) AppleWebKit/537.36 (KHTML, like Gecko) Chrome/118.0.0.0 Safari/537.36",Macintosh,Chrome,118.0.0.0,OS X,10_15_7,,"en-US,en;q=0.9",,,[object Object],,,,,,,,,,,,,,,,
100,,389.0,audio-keyboard-response,101,259843,0.0-10.0-1.1,1,1,2023-10-30 23:52:03,ec53d80472dcc330b6ccf60011d5c0d4,171.66.13.53,"Mozilla/5.0 (Macintosh; Intel Mac OS X 10_15_7) AppleWebKit/537.36 (KHTML, like Gecko) Chrome/118.0.0.0 Safari/537.36",Macintosh,Chrome,118.0.0.0,OS X,10_15_7,,"en-US,en;q=0.9",sound/720,80.0,,generalization,space,negative,1.0,700.0,300.0,,,False,720.0,20.0,11.0,True,,,
101,,,html-keyboard-response,102,260849,0.0-10.0-2.1,1,1,2023-10-30 23:52:03,ec53d80472dcc330b6ccf60011d5c0d4,171.66.13.53,"Mozilla/5.0 (Macintosh; Intel Mac OS X 10_15_7) AppleWebKit/537.36 (KHTML, like Gecko) Chrome/118.0.0.0 Safari/537.36",Macintosh,Chrome,118.0.0.0,OS X,10_15_7,,"en-US,en;q=0.9",,,,,,,,,,,,,,,,,,,
102,,,html-keyboard-response,103,261355,0.0-10.0-0.2,1,1,2023-10-30 23:52:03,ec53d80472dcc330b6ccf60011d5c0d4,171.66.13.53,"Mozilla/5.0 (Macintosh; Intel Mac OS X 10_15_7) AppleWebKit/537.36 (KHTML, like Gecko) Chrome/118.0.0.0 Safari/537.36",Macintosh,Chrome,118.0.0.0,OS X,10_15_7,,"en-US,en;q=0.9",,,[object Object],,,,,,,,,,,,,,,,
103,,43.0,audio-keyboard-response,104,261401,0.0-10.0-1.2,1,1,2023-10-30 23:52:03,ec53d80472dcc330b6ccf60011d5c0d4,171.66.13.53,"Mozilla/5.0 (Macintosh; Intel Mac OS X 10_15_7) AppleWebKit/537.36 (KHTML, like Gecko) Chrome/118.0.0.0 Safari/537.36",Macintosh,Chrome,118.0.0.0,OS X,10_15_7,,"en-US,en;q=0.9",sound/700,80.0,,generalization,p,negative,1.0,700.0,300.0,,,True,,0.0,12.0,True,,,
104,,,html-keyboard-response,105,262405,0.0-10.0-2.2,1,1,2023-10-30 23:52:03,ec53d80472dcc330b6ccf60011d5c0d4,171.66.13.53,"Mozilla/5.0 (Macintosh; Intel Mac OS X 10_15_7) AppleWebKit/537.36 (KHTML, like Gecko) Chrome/118.0.0.0 Safari/537.36",Macintosh,Chrome,118.0.0.0,OS X,10_15_7,,"en-US,en;q=0.9",,,,,,,,,,,,,,,,,,,
105,,,html-keyboard-response,106,262914,0.0-10.0-0.3,1,1,2023-10-30 23:52:03,ec53d80472dcc330b6ccf60011d5c0d4,171.66.13.53,"Mozilla/5.0 (Macintosh; Intel Mac OS X 10_15_7) AppleWebKit/537.36 (KHTML, like Gecko) Chrome/118.0.0.0 Safari/537.36",Macintosh,Chrome,118.0.0.0,OS X,10_15_7,,"en-US,en;q=0.9",,,[object Object],,,,,,,,,,,,,,,,
106,,475.0,audio-keyboard-response,107,263390,0.0-10.0-1.3,1,1,2023-10-30 23:52:03,ec53d80472dcc330b6ccf60011d5c0d4,171.66.13.53,"Mozilla/5.0 (Macintosh; Intel Mac OS X 10_15_7) AppleWebKit/537.36 (KHTML, like Gecko) Chrome/118.0.0.0 Safari/537.36",Macintosh,Chrome,118.0.0.0,OS X,10_15_7,,"en-US,en;q=0.9",sound/320,80.0,,generalization,space,positive,1.0,700.0,300.0,,,False,320.0,20.0,13.0,False,,,
107,,,html-keyboard-response,108,264400,0.0-10.0-2.3,1,1,2023-10-30 23:52:03,ec53d80472dcc330b6ccf60011d5c0d4,171.66.13.53,"Mozilla/5.0 (Macintosh; Intel Mac OS X 10_15_7) AppleWebKit/537.36 (KHTML, like Gecko) Chrome/118.0.0.0 Safari/537.36",Macintosh,Chrome,118.0.0.0,OS X,10_15_7,,"en-US,en;q=0.9",,,,,,,,,,,,,,,,,,,
108,,,html-keyboard-response,109,264906,0.0-10.0-0.4,1,1,2023-10-30 23:52:03,ec53d80472dcc330b6ccf60011d5c0d4,171.66.13.53,"Mozilla/5.0 (Macintosh; Intel Mac OS X 10_15_7) AppleWebKit/537.36 (KHTML, like Gecko) Chrome/118.0.0.0 Safari/537.36",Macintosh,Chrome,118.0.0.0,OS X,10_15_7,,"en-US,en;q=0.9",,,[object Object],,,,,,,,,,,,,,,,
109,,512.0,audio-keyboard-response,110,265422,0.0-10.0-1.4,1,1,2023-10-30 23:52:03,ec53d80472dcc330b6ccf60011d5c0d4,171.66.13.53,"Mozilla/5.0 (Macintosh; Intel Mac OS X 10_15_7) AppleWebKit/537.36 (KHTML, like Gecko) Chrome/118.0.0.0 Safari/537.36",Macintosh,Chrome,118.0.0.0,OS X,10_15_7,,"en-US,en;q=0.9",sound/680,81.0,,generalization,space,negative,1.0,700.0,300.0,,,False,680.0,-20.0,14.0,False,,,
110,,,html-keyboard-response,111,266429,0.0-10.0-2.4,1,1,2023-10-30 23:52:03,ec53d80472dcc330b6ccf60011d5c0d4,171.66.13.53,"Mozilla/5.0 (Macintosh; Intel Mac OS X 10_15_7) AppleWebKit/537.36 (KHTML, like Gecko) Chrome/118.0.0.0 Safari/537.36",Macintosh,Chrome,118.0.0.0,OS X,10_15_7,,"en-US,en;q=0.9",,,,,,,,,,,,,,,,,,,
111,,,html-keyboard-response,112,266935,0.0-10.0-0.5,1,1,2023-10-30 23:52:03,ec53d80472dcc330b6ccf60011d5c0d4,171.66.13.53,"Mozilla/5.0 (Macintosh; Intel Mac OS X 10_15_7) AppleWebKit/537.36 (KHTML, like Gecko) Chrome/118.0.0.0 Safari/537.36",Macintosh,Chrome,118.0.0.0,OS X,10_15_7,,"en-US,en;q=0.9",,,[object Object],,,,,,,,,,,,,,,,
112,,640.0,audio-keyboard-response,113,267576,0.0-10.0-1.5,1,1,2023-10-30 23:52:03,ec53d80472dcc330b6ccf60011d5c0d4,171.66.13.53,"Mozilla/5.0 (Macintosh; Intel Mac OS X 10_15_7) AppleWebKit/537.36 (KHTML, like Gecko) Chrome/118.0.0.0 Safari/537.36",Macintosh,Chrome,118.0.0.0,OS X,10_15_7,,"en-US,en;q=0.9",sound/200,80.0,,generalization,space,positive,1.0,700.0,300.0,,,False,200.0,-100.0,15.0,False,,,
113,,,html-keyboard-response,114,268580,0.0-10.0-2.5,1,1,2023-10-30 23:52:03,ec53d80472dcc330b6ccf60011d5c0d4,171.66.13.53,"Mozilla/5.0 (Macintosh; Intel Mac OS X 10_15_7) AppleWebKit/537.36 (KHTML, like Gecko) Chrome/118.0.0.0 Safari/537.36",Macintosh,Chrome,118.0.0.0,OS X,10_15_7,,"en-US,en;q=0.9",,,,,,,,,,,,,,,,,,,
114,,,html-keyboard-response,115,269088,0.0-10.0-0.6,1,1,2023-10-30 23:52:03,ec53d80472dcc330b6ccf60011d5c0d4,171.66.13.53,"Mozilla/5.0 (Macintosh; Intel Mac OS X 10_15_7) AppleWebKit/537.36 (KHTML, like Gecko) Chrome/118.0.0.0 Safari/537.36",Macintosh,Chrome,118.0.0.0,OS X,10_15_7,,"en-US,en;q=0.9",,,[object Object],,,,,,,,,,,,,,,,
115,,,audio-keyboard-response,116,271599,0.0-10.0-1.6,1,1,2023-10-30 23:52:03,ec53d80472dcc330b6ccf60011d5c0d4,171.66.13.53,"Mozilla/5.0 (Macintosh; Intel Mac OS X 10_15_7) AppleWebKit/537.36 (KHTML, like Gecko) Chrome/118.0.0.0 Safari/537.36",Macintosh,Chrome,118.0.0.0,OS X,10_15_7,,"en-US,en;q=0.9",sound/600,,,generalization,space,negative,1.0,700.0,300.0,,,False,600.0,-100.0,16.0,,,,
116,,,html-keyboard-response,117,272610,0.0-10.0-2.6,1,1,2023-10-30 23:52:03,ec53d80472dcc330b6ccf60011d5c0d4,171.66.13.53,"Mozilla/5.0 (Macintosh; Intel Mac OS X 10_15_7) AppleWebKit/537.36 (KHTML, like Gecko) Chrome/118.0.0.0 Safari/537.36",Macintosh,Chrome,118.0.0.0,OS X,10_15_7,,"en-US,en;q=0.9",<p style='font-weight:bold; color: red; font-size=100%'> - $0.40<br>RESPOND FASTER!</p>,,,,,,,,,,,,,,,,,,
117,,,html-keyboard-response,118,273118,0.0-10.0-0.7,1,1,2023-10-30 23:52:03,ec53d80472dcc330b6ccf60011d5c0d4,171.66.13.53,"Mozilla/5.0 (Macintosh; Intel Mac OS X 10_15_7) AppleWebKit/537.36 (KHTML, like Gecko) Chrome/118.0.0.0 Safari/537.36",Macintosh,Chrome,118.0.0.0,OS X,10_15_7,,"en-US,en;q=0.9",,,[object Object],,,,,,,,,,,,,,,,
118,,555.0,audio-keyboard-response,119,273680,0.0-10.0-1.7,1,1,2023-10-30 23:52:03,ec53d80472dcc330b6ccf60011d5c0d4,171.66.13.53,"Mozilla/5.0 (Macintosh; Intel Mac OS X 10_15_7) AppleWebKit/537.36 (KHTML, like Gecko) Chrome/118.0.0.0 Safari/537.36",Macintosh,Chrome,118.0.0.0,OS X,10_15_7,,"en-US,en;q=0.9",sound/300,80.0,,generalization,q,positive,1.0,700.0,300.0,,,False,,0.0,17.0,False,,,
119,,,html-keyboard-response,120,274688,0.0-10.0-2.7,1,1,2023-10-30 23:52:03,ec53d80472dcc330b6ccf60011d5c0d4,171.66.13.53,"Mozilla/5.0 (Macintosh; Intel Mac OS X 10_15_7) AppleWebKit/537.36 (KHTML, like Gecko) Chrome/118.0.0.0 Safari/537.36",Macintosh,Chrome,118.0.0.0,OS X,10_15_7,,"en-US,en;q=0.9",,,,,,,,,,,,,,,,,,,
120,,,html-keyboard-response,121,275194,0.0-10.0-0.8,1,1,2023-10-30 23:52:03,ec53d80472dcc330b6ccf60011d5c0d4,171.66.13.53,"Mozilla/5.0 (Macintosh; Intel Mac OS X 10_15_7) AppleWebKit/537.36 (KHTML, like Gecko) Chrome/118.0.0.0 Safari/537.36",Macintosh,Chrome,118.0.0.0,OS X,10_15_7,,"en-US,en;q=0.9",,,[object Object],,,,,,,,,,,,,,,,
121,,149.0,audio-keyboard-response,122,275350,0.0-10.0-1.8,1,1,2023-10-30 23:52:03,ec53d80472dcc330b6ccf60011d5c0d4,171.66.13.53,"Mozilla/5.0 (Macintosh; Intel Mac OS X 10_15_7) AppleWebKit/537.36 (KHTML, like Gecko) Chrome/118.0.0.0 Safari/537.36",Macintosh,Chrome,118.0.0.0,OS X,10_15_7,,"en-US,en;q=0.9",sound/280,80.0,,generalization,space,positive,1.0,700.0,300.0,,,False,280.0,-20.0,18.0,False,,,
122,,,html-keyboard-response,123,276358,0.0-10.0-2.8,1,1,2023-10-30 23:52:03,ec53d80472dcc330b6ccf60011d5c0d4,171.66.13.53,"Mozilla/5.0 (Macintosh; Intel Mac OS X 10_15_7) AppleWebKit/537.36 (KHTML, like Gecko) Chrome/118.0.0.0 Safari/537.36",Macintosh,Chrome,118.0.0.0,OS X,10_15_7,,"en-US,en;q=0.9",,,,,,,,,,,,,,,,,,,
123,,,html-keyboard-response,124,276870,0.0-10.0-0.9,1,1,2023-10-30 23:52:03,ec53d80472dcc330b6ccf60011d5c0d4,171.66.13.53,"Mozilla/5.0 (Macintosh; Intel Mac OS X 10_15_7) AppleWebKit/537.36 (KHTML, like Gecko) Chrome/118.0.0.0 Safari/537.36",Macintosh,Chrome,118.0.0.0,OS X,10_15_7,,"en-US,en;q=0.9",,,[object Object],,,,,,,,,,,,,,,,
124,,64.0,audio-keyboard-response,125,276936,0.0-10.0-1.9,1,1,2023-10-30 23:52:03,ec53d80472dcc330b6ccf60011d5c0d4,171.66.13.53,"Mozilla/5.0 (Macintosh; Intel Mac OS X 10_15_7) AppleWebKit/537.36 (KHTML, like Gecko) Chrome/118.0.0.0 Safari/537.36",Macintosh,Chrome,118.0.0.0,OS X,10_15_7,,"en-US,en;q=0.9",sound/400,81.0,,generalization,space,positive,1.0,700.0,300.0,,,False,400.0,100.0,19.0,True,,,
125,,,html-keyboard-response,126,277944,0.0-10.0-2.9,1,1,2023-10-30 23:52:03,ec53d80472dcc330b6ccf60011d5c0d4,171.66.13.53,"Mozilla/5.0 (Macintosh; Intel Mac OS X 10_15_7) AppleWebKit/537.36 (KHTML, like Gecko) Chrome/118.0.0.0 Safari/537.36",Macintosh,Chrome,118.0.0.0,OS X,10_15_7,,"en-US,en;q=0.9",,,,,,,,,,,,,,,,,,,
126,,1325.0,html-keyboard-response,127,279272,0.0-11.0,1,1,2023-10-30 23:52:03,ec53d80472dcc330b6ccf60011d5c0d4,171.66.13.53,"Mozilla/5.0 (Macintosh; Intel Mac OS X 10_15_7) AppleWebKit/537.36 (KHTML, like Gecko) Chrome/118.0.0.0 Safari/537.36",Macintosh,Chrome,118.0.0.0,OS X,10_15_7,,"en-US,en;q=0.9",bonus earned during this period: $0.04<br><br>Press any key to continue.,32.0,,,,,,,,,,,,,,,,,
127,"[{""page_index"":0,""viewing_time"":1797}]",1798.0,instructions,128,281072,0.0-12.0,1,1,2023-10-30 23:52:03,ec53d80472dcc330b6ccf60011d5c0d4,171.66.13.53,"Mozilla/5.0 (Macintosh; Intel Mac OS X 10_15_7) AppleWebKit/537.36 (KHTML, like Gecko) Chrome/118.0.0.0 Safari/537.36",Macintosh,Chrome,118.0.0.0,OS X,10_15_7,,"en-US,en;q=0.9",,,,,,,,,,,,,,,,,,,
128,,,html-keyboard-response,129,282488,0.0-13.0-0.0,1,1,2023-10-30 23:52:03,ec53d80472dcc330b6ccf60011d5c0d4,171.66.13.53,"Mozilla/5.0 (Macintosh; Intel Mac OS X 10_15_7) AppleWebKit/537.36 (KHTML, like Gecko) Chrome/118.0.0.0 Safari/537.36",Macintosh,Chrome,118.0.0.0,OS X,10_15_7,,"en-US,en;q=0.9","<div style=""font-size:120%; top:20%""></div>",,[object Object],,,,,,,,,,,,,,,,
129,,891.0,audio-keyboard-response,130,284997,0.0-13.0-1.0,1,1,2023-10-30 23:52:03,ec53d80472dcc330b6ccf60011d5c0d4,171.66.13.53,"Mozilla/5.0 (Macintosh; Intel Mac OS X 10_15_7) AppleWebKit/537.36 (KHTML, like Gecko) Chrome/118.0.0.0 Safari/537.36",Macintosh,Chrome,118.0.0.0,OS X,10_15_7,,"en-US,en;q=0.9",sound/700,80.0,,acquisition,,negative,2.0,700.0,300.0,,700.0,False,,,,,,,
130,,,html-keyboard-response,131,286112,0.0-13.0-2.0,1,1,2023-10-30 23:52:03,ec53d80472dcc330b6ccf60011d5c0d4,171.66.13.53,"Mozilla/5.0 (Macintosh; Intel Mac OS X 10_15_7) AppleWebKit/537.36 (KHTML, like Gecko) Chrome/118.0.0.0 Safari/537.36",Macintosh,Chrome,118.0.0.0,OS X,10_15_7,,"en-US,en;q=0.9","<font size=""100%"" weight=bold> - $0.04</font>",,,,,,,,,,,,,,,,,,
131,,,html-keyboard-response,132,287624,0.0-13.0-0.1,1,1,2023-10-30 23:52:03,ec53d80472dcc330b6ccf60011d5c0d4,171.66.13.53,"Mozilla/5.0 (Macintosh; Intel Mac OS X 10_15_7) AppleWebKit/537.36 (KHTML, like Gecko) Chrome/118.0.0.0 Safari/537.36",Macintosh,Chrome,118.0.0.0,OS X,10_15_7,,"en-US,en;q=0.9","<div style=""font-size:120%; top:20%""></div>",,[object Object],,,,,,,,,,,,,,,,
132,,629.0,audio-keyboard-response,133,288256,0.0-13.0-1.1,1,1,2023-10-30 23:52:03,ec53d80472dcc330b6ccf60011d5c0d4,171.66.13.53,"Mozilla/5.0 (Macintosh; Intel Mac OS X 10_15_7) AppleWebKit/537.36 (KHTML, like Gecko) Chrome/118.0.0.0 Safari/537.36",Macintosh,Chrome,118.0.0.0,OS X,10_15_7,,"en-US,en;q=0.9",sound/300,80.0,,acquisition,q,positive,2.0,700.0,300.0,,300.0,,,,,,,,
133,,,html-keyboard-response,134,289367,0.0-13.0-2.1,1,1,2023-10-30 23:52:03,ec53d80472dcc330b6ccf60011d5c0d4,171.66.13.53,"Mozilla/5.0 (Macintosh; Intel Mac OS X 10_15_7) AppleWebKit/537.36 (KHTML, like Gecko) Chrome/118.0.0.0 Safari/537.36",Macintosh,Chrome,118.0.0.0,OS X,10_15_7,,"en-US,en;q=0.9","<font size=""100%"" weight=bold> + $0.00 </font>",,,,,,,,,,,,,,,,,,
134,,,html-keyboard-response,135,290873,0.0-13.0-0.2,1,1,2023-10-30 23:52:03,ec53d80472dcc330b6ccf60011d5c0d4,171.66.13.53,"Mozilla/5.0 (Macintosh; Intel Mac OS X 10_15_7) AppleWebKit/537.36 (KHTML, like Gecko) Chrome/118.0.0.0 Safari/537.36",Macintosh,Chrome,118.0.0.0,OS X,10_15_7,,"en-US,en;q=0.9","<div style=""font-size:120%; top:20%""></div>",,[object Object],,,,,,,,,,,,,,,,
135,,187.0,audio-keyboard-response,136,293379,0.0-13.0-1.2,1,1,2023-10-30 23:52:03,ec53d80472dcc330b6ccf60011d5c0d4,171.66.13.53,"Mozilla/5.0 (Macintosh; Intel Mac OS X 10_15_7) AppleWebKit/537.36 (KHTML, like Gecko) Chrome/118.0.0.0 Safari/537.36",Macintosh,Chrome,118.0.0.0,OS X,10_15_7,,"en-US,en;q=0.9",sound/300,80.0,,acquisition,,positive,2.0,700.0,300.0,,300.0,True,,,,,,,
136,,,html-keyboard-response,137,294489,0.0-13.0-2.2,1,1,2023-10-30 23:52:03,ec53d80472dcc330b6ccf60011d5c0d4,171.66.13.53,"Mozilla/5.0 (Macintosh; Intel Mac OS X 10_15_7) AppleWebKit/537.36 (KHTML, like Gecko) Chrome/118.0.0.0 Safari/537.36",Macintosh,Chrome,118.0.0.0,OS X,10_15_7,,"en-US,en;q=0.9","<font size=""100%"" weight=bold> + $0.04</font>",,,,,,,,,,,,,,,,,,
137,,,html-keyboard-response,138,296007,0.0-13.0-0.3,1,1,2023-10-30 23:52:03,ec53d80472dcc330b6ccf60011d5c0d4,171.66.13.53,"Mozilla/5.0 (Macintosh; Intel Mac OS X 10_15_7) AppleWebKit/537.36 (KHTML, like Gecko) Chrome/118.0.0.0 Safari/537.36",Macintosh,Chrome,118.0.0.0,OS X,10_15_7,,"en-US,en;q=0.9","<div style=""font-size:120%; top:20%""></div>",,[object Object],,,,,,,,,,,,,,,,
138,,277.0,audio-keyboard-response,139,296290,0.0-13.0-1.3,1,1,2023-10-30 23:52:03,ec53d80472dcc330b6ccf60011d5c0d4,171.66.13.53,"Mozilla/5.0 (Macintosh; Intel Mac OS X 10_15_7) AppleWebKit/537.36 (KHTML, like Gecko) Chrome/118.0.0.0 Safari/537.36",Macintosh,Chrome,118.0.0.0,OS X,10_15_7,,"en-US,en;q=0.9",sound/500,81.0,,acquisition,,neutral,2.0,700.0,300.0,,500.0,,,,,,,,
139,,,html-keyboard-response,140,297400,0.0-13.0-2.3,1,1,2023-10-30 23:52:03,ec53d80472dcc330b6ccf60011d5c0d4,171.66.13.53,"Mozilla/5.0 (Macintosh; Intel Mac OS X 10_15_7) AppleWebKit/537.36 (KHTML, like Gecko) Chrome/118.0.0.0 Safari/537.36",Macintosh,Chrome,118.0.0.0,OS X,10_15_7,,"en-US,en;q=0.9","<font size=""100%""></font>",,,,,,,,,,,,,,,,,,
140,,,html-keyboard-response,141,298910,0.0-13.0-0.4,1,1,2023-10-30 23:52:03,ec53d80472dcc330b6ccf60011d5c0d4,171.66.13.53,"Mozilla/5.0 (Macintosh; Intel Mac OS X 10_15_7) AppleWebKit/537.36 (KHTML, like Gecko) Chrome/118.0.0.0 Safari/537.36",Macintosh,Chrome,118.0.0.0,OS X,10_15_7,,"en-US,en;q=0.9","<div style=""font-size:120%; top:20%""></div>",,[object Object],,,,,,,,,,,,,,,,
141,,21.0,audio-keyboard-response,142,298940,0.0-13.0-1.4,1,1,2023-10-30 23:52:03,ec53d80472dcc330b6ccf60011d5c0d4,171.66.13.53,"Mozilla/5.0 (Macintosh; Intel Mac OS X 10_15_7) AppleWebKit/537.36 (KHTML, like Gecko) Chrome/118.0.0.0 Safari/537.36",Macintosh,Chrome,118.0.0.0,OS X,10_15_7,,"en-US,en;q=0.9",sound/700,81.0,,acquisition,p,negative,2.0,700.0,300.0,,700.0,,,,,,,,
142,,,html-keyboard-response,143,300051,0.0-13.0-2.4,1,1,2023-10-30 23:52:03,ec53d80472dcc330b6ccf60011d5c0d4,171.66.13.53,"Mozilla/5.0 (Macintosh; Intel Mac OS X 10_15_7) AppleWebKit/537.36 (KHTML, like Gecko) Chrome/118.0.0.0 Safari/537.36",Macintosh,Chrome,118.0.0.0,OS X,10_15_7,,"en-US,en;q=0.9","<font size=""100%"" weight=bold> - $0.04</font>",,,,,,,,,,,,,,,,,,
143,,,html-keyboard-response,144,301562,0.0-13.0-0.5,1,1,2023-10-30 23:52:03,ec53d80472dcc330b6ccf60011d5c0d4,171.66.13.53,"Mozilla/5.0 (Macintosh; Intel Mac OS X 10_15_7) AppleWebKit/537.36 (KHTML, like Gecko) Chrome/118.0.0.0 Safari/537.36",Macintosh,Chrome,118.0.0.0,OS X,10_15_7,,"en-US,en;q=0.9","<div style=""font-size:120%; top:20%""></div>",,[object Object],,,,,,,,,,,,,,,,
144,,1952.0,audio-keyboard-response,145,304071,0.0-13.0-1.5,1,1,2023-10-30 23:52:03,ec53d80472dcc330b6ccf60011d5c0d4,171.66.13.53,"Mozilla/5.0 (Macintosh; Intel Mac OS X 10_15_7) AppleWebKit/537.36 (KHTML, like Gecko) Chrome/118.0.0.0 Safari/537.36",Macintosh,Chrome,118.0.0.0,OS X,10_15_7,,"en-US,en;q=0.9",sound/700,81.0,,acquisition,,negative,2.0,700.0,300.0,,700.0,False,,,,,,,
145,,,html-keyboard-response,146,305194,0.0-13.0-2.5,1,1,2023-10-30 23:52:03,ec53d80472dcc330b6ccf60011d5c0d4,171.66.13.53,"Mozilla/5.0 (Macintosh; Intel Mac OS X 10_15_7) AppleWebKit/537.36 (KHTML, like Gecko) Chrome/118.0.0.0 Safari/537.36",Macintosh,Chrome,118.0.0.0,OS X,10_15_7,,"en-US,en;q=0.9","<font size=""100%"" weight=bold> - $0.04</font>",,,,,,,,,,,,,,,,,,
146,,,html-keyboard-response,147,306711,0.0-13.0-0.6,1,1,2023-10-30 23:52:03,ec53d80472dcc330b6ccf60011d5c0d4,171.66.13.53,"Mozilla/5.0 (Macintosh; Intel Mac OS X 10_15_7) AppleWebKit/537.36 (KHTML, like Gecko) Chrome/118.0.0.0 Safari/537.36",Macintosh,Chrome,118.0.0.0,OS X,10_15_7,,"en-US,en;q=0.9","<div style=""font-size:120%; top:20%""></div>",,[object Object],,,,,,,,,,,,,,,,
147,,160.0,audio-keyboard-response,148,306874,0.0-13.0-1.6,1,1,2023-10-30 23:52:03,ec53d80472dcc330b6ccf60011d5c0d4,171.66.13.53,"Mozilla/5.0 (Macintosh; Intel Mac OS X 10_15_7) AppleWebKit/537.36 (KHTML, like Gecko) Chrome/118.0.0.0 Safari/537.36",Macintosh,Chrome,118.0.0.0,OS X,10_15_7,,"en-US,en;q=0.9",sound/300,81.0,,acquisition,q,positive,2.0,700.0,300.0,,300.0,,,,,,,,
148,,,html-keyboard-response,149,307981,0.0-13.0-2.6,1,1,2023-10-30 23:52:03,ec53d80472dcc330b6ccf60011d5c0d4,171.66.13.53,"Mozilla/5.0 (Macintosh; Intel Mac OS X 10_15_7) AppleWebKit/537.36 (KHTML, like Gecko) Chrome/118.0.0.0 Safari/537.36",Macintosh,Chrome,118.0.0.0,OS X,10_15_7,,"en-US,en;q=0.9","<font size=""100%"" weight=bold> + $0.00 </font>",,,,,,,,,,,,,,,,,,
149,,,html-keyboard-response,150,309491,0.0-13.0-0.7,1,1,2023-10-30 23:52:03,ec53d80472dcc330b6ccf60011d5c0d4,171.66.13.53,"Mozilla/5.0 (Macintosh; Intel Mac OS X 10_15_7) AppleWebKit/537.36 (KHTML, like Gecko) Chrome/118.0.0.0 Safari/537.36",Macintosh,Chrome,118.0.0.0,OS X,10_15_7,,"en-US,en;q=0.9","<div style=""font-size:120%; top:20%""></div>",,[object Object],,,,,,,,,,,,,,,,
150,,1808.0,audio-keyboard-response,151,312002,0.0-13.0-1.7,1,1,2023-10-30 23:52:03,ec53d80472dcc330b6ccf60011d5c0d4,171.66.13.53,"Mozilla/5.0 (Macintosh; Intel Mac OS X 10_15_7) AppleWebKit/537.36 (KHTML, like Gecko) Chrome/118.0.0.0 Safari/537.36",Macintosh,Chrome,118.0.0.0,OS X,10_15_7,,"en-US,en;q=0.9",sound/300,81.0,,acquisition,,positive,2.0,700.0,300.0,,300.0,True,,,,,,,
151,,,html-keyboard-response,152,313118,0.0-13.0-2.7,1,1,2023-10-30 23:52:03,ec53d80472dcc330b6ccf60011d5c0d4,171.66.13.53,"Mozilla/5.0 (Macintosh; Intel Mac OS X 10_15_7) AppleWebKit/537.36 (KHTML, like Gecko) Chrome/118.0.0.0 Safari/537.36",Macintosh,Chrome,118.0.0.0,OS X,10_15_7,,"en-US,en;q=0.9","<font size=""100%"" weight=bold> + $0.04</font>",,,,,,,,,,,,,,,,,,
152,,,html-keyboard-response,153,314634,0.0-13.0-0.8,1,1,2023-10-30 23:52:03,ec53d80472dcc330b6ccf60011d5c0d4,171.66.13.53,"Mozilla/5.0 (Macintosh; Intel Mac OS X 10_15_7) AppleWebKit/537.36 (KHTML, like Gecko) Chrome/118.0.0.0 Safari/537.36",Macintosh,Chrome,118.0.0.0,OS X,10_15_7,,"en-US,en;q=0.9","<div style=""font-size:120%; top:20%""></div>",,[object Object],,,,,,,,,,,,,,,,
153,,512.0,audio-keyboard-response,154,315153,0.0-13.0-1.8,1,1,2023-10-30 23:52:03,ec53d80472dcc330b6ccf60011d5c0d4,171.66.13.53,"Mozilla/5.0 (Macintosh; Intel Mac OS X 10_15_7) AppleWebKit/537.36 (KHTML, like Gecko) Chrome/118.0.0.0 Safari/537.36",Macintosh,Chrome,118.0.0.0,OS X,10_15_7,,"en-US,en;q=0.9",sound/700,81.0,,acquisition,p,negative,2.0,700.0,300.0,,700.0,,,,,,,,
154,,,html-keyboard-response,155,316268,0.0-13.0-2.8,1,1,2023-10-30 23:52:03,ec53d80472dcc330b6ccf60011d5c0d4,171.66.13.53,"Mozilla/5.0 (Macintosh; Intel Mac OS X 10_15_7) AppleWebKit/537.36 (KHTML, like Gecko) Chrome/118.0.0.0 Safari/537.36",Macintosh,Chrome,118.0.0.0,OS X,10_15_7,,"en-US,en;q=0.9","<font size=""100%"" weight=bold> - $0.04</font>",,,,,,,,,,,,,,,,,,
155,,,html-keyboard-response,156,317785,0.0-13.0-0.9,1,1,2023-10-30 23:52:03,ec53d80472dcc330b6ccf60011d5c0d4,171.66.13.53,"Mozilla/5.0 (Macintosh; Intel Mac OS X 10_15_7) AppleWebKit/537.36 (KHTML, like Gecko) Chrome/118.0.0.0 Safari/537.36",Macintosh,Chrome,118.0.0.0,OS X,10_15_7,,"en-US,en;q=0.9","<div style=""font-size:120%; top:20%""></div>",,[object Object],,,,,,,,,,,,,,,,
156,,,audio-keyboard-response,157,320293,0.0-13.0-1.9,1,1,2023-10-30 23:52:03,ec53d80472dcc330b6ccf60011d5c0d4,171.66.13.53,"Mozilla/5.0 (Macintosh; Intel Mac OS X 10_15_7) AppleWebKit/537.36 (KHTML, like Gecko) Chrome/118.0.0.0 Safari/537.36",Macintosh,Chrome,118.0.0.0,OS X,10_15_7,,"en-US,en;q=0.9",sound/500,,,acquisition,,neutral,2.0,700.0,300.0,,500.0,,,,,,,,
157,,,html-keyboard-response,158,321406,0.0-13.0-2.9,1,1,2023-10-30 23:52:03,ec53d80472dcc330b6ccf60011d5c0d4,171.66.13.53,"Mozilla/5.0 (Macintosh; Intel Mac OS X 10_15_7) AppleWebKit/537.36 (KHTML, like Gecko) Chrome/118.0.0.0 Safari/537.36",Macintosh,Chrome,118.0.0.0,OS X,10_15_7,,"en-US,en;q=0.9","<font size=""100%""></font>",,,,,,,,,,,,,,,,,,
158,,1630.0,html-keyboard-response,159,323548,0.0-14.0,1,1,2023-10-30 23:52:03,ec53d80472dcc330b6ccf60011d5c0d4,171.66.13.53,"Mozilla/5.0 (Macintosh; Intel Mac OS X 10_15_7) AppleWebKit/537.36 (KHTML, like Gecko) Chrome/118.0.0.0 Safari/537.36",Macintosh,Chrome,118.0.0.0,OS X,10_15_7,,"en-US,en;q=0.9",The total bonus amount of bonus you earned in this last period was $0.00.<br> Press any key to continue to the next step.,32.0,,,,,,,,,,,,,,,,,
159,"[{""page_index"":0,""viewing_time"":1470}]",1471.0,instructions,160,325023,0.0-15.0,1,1,2023-10-30 23:52:03,ec53d80472dcc330b6ccf60011d5c0d4,171.66.13.53,"Mozilla/5.0 (Macintosh; Intel Mac OS X 10_15_7) AppleWebKit/537.36 (KHTML, like Gecko) Chrome/118.0.0.0 Safari/537.36",Macintosh,Chrome,118.0.0.0,OS X,10_15_7,,"en-US,en;q=0.9",,,,,,,,,,,,,,,,,,,
160,,,html-keyboard-response,161,325935,0.0-16.0-0.0,1,1,2023-10-30 23:52:03,ec53d80472dcc330b6ccf60011d5c0d4,171.66.13.53,"Mozilla/5.0 (Macintosh; Intel Mac OS X 10_15_7) AppleWebKit/537.36 (KHTML, like Gecko) Chrome/118.0.0.0 Safari/537.36",Macintosh,Chrome,118.0.0.0,OS X,10_15_7,,"en-US,en;q=0.9",,,[object Object],,,,,,,,,,,,,,,,
161,,560.0,audio-keyboard-response,162,326502,0.0-16.0-1.0,1,1,2023-10-30 23:52:03,ec53d80472dcc330b6ccf60011d5c0d4,171.66.13.53,"Mozilla/5.0 (Macintosh; Intel Mac OS X 10_15_7) AppleWebKit/537.36 (KHTML, like Gecko) Chrome/118.0.0.0 Safari/537.36",Macintosh,Chrome,118.0.0.0,OS X,10_15_7,,"en-US,en;q=0.9",sound/720,80.0,,generalization,space,negative,2.0,700.0,300.0,,,False,720.0,20.0,20.0,True,,,
162,,,html-keyboard-response,163,327516,0.0-16.0-2.0,1,1,2023-10-30 23:52:03,ec53d80472dcc330b6ccf60011d5c0d4,171.66.13.53,"Mozilla/5.0 (Macintosh; Intel Mac OS X 10_15_7) AppleWebKit/537.36 (KHTML, like Gecko) Chrome/118.0.0.0 Safari/537.36",Macintosh,Chrome,118.0.0.0,OS X,10_15_7,,"en-US,en;q=0.9",,,,,,,,,,,,,,,,,,,
163,,,html-keyboard-response,164,328023,0.0-16.0-0.1,1,1,2023-10-30 23:52:03,ec53d80472dcc330b6ccf60011d5c0d4,171.66.13.53,"Mozilla/5.0 (Macintosh; Intel Mac OS X 10_15_7) AppleWebKit/537.36 (KHTML, like Gecko) Chrome/118.0.0.0 Safari/537.36",Macintosh,Chrome,118.0.0.0,OS X,10_15_7,,"en-US,en;q=0.9",,,[object Object],,,,,,,,,,,,,,,,
164,,1189.0,audio-keyboard-response,165,329213,0.0-16.0-1.1,1,1,2023-10-30 23:52:03,ec53d80472dcc330b6ccf60011d5c0d4,171.66.13.53,"Mozilla/5.0 (Macintosh; Intel Mac OS X 10_15_7) AppleWebKit/537.36 (KHTML, like Gecko) Chrome/118.0.0.0 Safari/537.36",Macintosh,Chrome,118.0.0.0,OS X,10_15_7,,"en-US,en;q=0.9",sound/400,80.0,,generalization,space,positive,2.0,700.0,300.0,,,False,400.0,100.0,21.0,False,,,
165,,,html-keyboard-response,166,330222,0.0-16.0-2.1,1,1,2023-10-30 23:52:03,ec53d80472dcc330b6ccf60011d5c0d4,171.66.13.53,"Mozilla/5.0 (Macintosh; Intel Mac OS X 10_15_7) AppleWebKit/537.36 (KHTML, like Gecko) Chrome/118.0.0.0 Safari/537.36",Macintosh,Chrome,118.0.0.0,OS X,10_15_7,,"en-US,en;q=0.9",,,,,,,,,,,,,,,,,,,
166,,,html-keyboard-response,167,330732,0.0-16.0-0.2,1,1,2023-10-30 23:52:03,ec53d80472dcc330b6ccf60011d5c0d4,171.66.13.53,"Mozilla/5.0 (Macintosh; Intel Mac OS X 10_15_7) AppleWebKit/537.36 (KHTML, like Gecko) Chrome/118.0.0.0 Safari/537.36",Macintosh,Chrome,118.0.0.0,OS X,10_15_7,,"en-US,en;q=0.9",,,[object Object],,,,,,,,,,,,,,,,
167,,379.0,audio-keyboard-response,168,331113,0.0-16.0-1.2,1,1,2023-10-30 23:52:03,ec53d80472dcc330b6ccf60011d5c0d4,171.66.13.53,"Mozilla/5.0 (Macintosh; Intel Mac OS X 10_15_7) AppleWebKit/537.36 (KHTML, like Gecko) Chrome/118.0.0.0 Safari/537.36",Macintosh,Chrome,118.0.0.0,OS X,10_15_7,,"en-US,en;q=0.9",sound/680,80.0,,generalization,space,negative,2.0,700.0,300.0,,,False,680.0,-20.0,22.0,True,,,
168,,,html-keyboard-response,169,332119,0.0-16.0-2.2,1,1,2023-10-30 23:52:03,ec53d80472dcc330b6ccf60011d5c0d4,171.66.13.53,"Mozilla/5.0 (Macintosh; Intel Mac OS X 10_15_7) AppleWebKit/537.36 (KHTML, like Gecko) Chrome/118.0.0.0 Safari/537.36",Macintosh,Chrome,118.0.0.0,OS X,10_15_7,,"en-US,en;q=0.9",,,,,,,,,,,,,,,,,,,
169,,,html-keyboard-response,170,332631,0.0-16.0-0.3,1,1,2023-10-30 23:52:03,ec53d80472dcc330b6ccf60011d5c0d4,171.66.13.53,"Mozilla/5.0 (Macintosh; Intel Mac OS X 10_15_7) AppleWebKit/537.36 (KHTML, like Gecko) Chrome/118.0.0.0 Safari/537.36",Macintosh,Chrome,118.0.0.0,OS X,10_15_7,,"en-US,en;q=0.9",,,[object Object],,,,,,,,,,,,,,,,
170,,,audio-keyboard-response,171,335138,0.0-16.0-1.3,1,1,2023-10-30 23:52:03,ec53d80472dcc330b6ccf60011d5c0d4,171.66.13.53,"Mozilla/5.0 (Macintosh; Intel Mac OS X 10_15_7) AppleWebKit/537.36 (KHTML, like Gecko) Chrome/118.0.0.0 Safari/537.36",Macintosh,Chrome,118.0.0.0,OS X,10_15_7,,"en-US,en;q=0.9",sound/320,,,generalization,space,positive,2.0,700.0,300.0,,,False,320.0,20.0,23.0,,,,
171,,,html-keyboard-response,172,336149,0.0-16.0-2.3,1,1,2023-10-30 23:52:03,ec53d80472dcc330b6ccf60011d5c0d4,171.66.13.53,"Mozilla/5.0 (Macintosh; Intel Mac OS X 10_15_7) AppleWebKit/537.36 (KHTML, like Gecko) Chrome/118.0.0.0 Safari/537.36",Macintosh,Chrome,118.0.0.0,OS X,10_15_7,,"en-US,en;q=0.9",<p style='font-weight:bold; color: red; font-size=100%'> - $0.40<br>RESPOND FASTER!</p>,,,,,,,,,,,,,,,,,,
172,,,html-keyboard-response,173,336657,0.0-16.0-0.4,1,1,2023-10-30 23:52:03,ec53d80472dcc330b6ccf60011d5c0d4,171.66.13.53,"Mozilla/5.0 (Macintosh; Intel Mac OS X 10_15_7) AppleWebKit/537.36 (KHTML, like Gecko) Chrome/118.0.0.0 Safari/537.36",Macintosh,Chrome,118.0.0.0,OS X,10_15_7,,"en-US,en;q=0.9",,,[object Object],,,,,,,,,,,,,,,,
173,,,audio-keyboard-response,174,339169,0.0-16.0-1.4,1,1,2023-10-30 23:52:03,ec53d80472dcc330b6ccf60011d5c0d4,171.66.13.53,"Mozilla/5.0 (Macintosh; Intel Mac OS X 10_15_7) AppleWebKit/537.36 (KHTML, like Gecko) Chrome/118.0.0.0 Safari/537.36",Macintosh,Chrome,118.0.0.0,OS X,10_15_7,,"en-US,en;q=0.9",sound/600,,,generalization,space,negative,2.0,700.0,300.0,,,False,600.0,-100.0,24.0,,,,
174,,,html-keyboard-response,175,340183,0.0-16.0-2.4,1,1,2023-10-30 23:52:03,ec53d80472dcc330b6ccf60011d5c0d4,171.66.13.53,"Mozilla/5.0 (Macintosh; Intel Mac OS X 10_15_7) AppleWebKit/537.36 (KHTML, like Gecko) Chrome/118.0.0.0 Safari/537.36",Macintosh,Chrome,118.0.0.0,OS X,10_15_7,,"en-US,en;q=0.9",<p style='font-weight:bold; color: red; font-size=100%'> - $0.40<br>RESPOND FASTER!</p>,,,,,,,,,,,,,,,,,,
175,,,html-keyboard-response,176,340690,0.0-16.0-0.5,1,1,2023-10-30 23:52:03,ec53d80472dcc330b6ccf60011d5c0d4,171.66.13.53,"Mozilla/5.0 (Macintosh; Intel Mac OS X 10_15_7) AppleWebKit/537.36 (KHTML, like Gecko) Chrome/118.0.0.0 Safari/537.36",Macintosh,Chrome,118.0.0.0,OS X,10_15_7,,"en-US,en;q=0.9",,,[object Object],,,,,,,,,,,,,,,,
176,,267.0,audio-keyboard-response,177,340957,0.0-16.0-1.5,1,1,2023-10-30 23:52:03,ec53d80472dcc330b6ccf60011d5c0d4,171.66.13.53,"Mozilla/5.0 (Macintosh; Intel Mac OS X 10_15_7) AppleWebKit/537.36 (KHTML, like Gecko) Chrome/118.0.0.0 Safari/537.36",Macintosh,Chrome,118.0.0.0,OS X,10_15_7,,"en-US,en;q=0.9",sound/700,80.0,,generalization,p,negative,2.0,700.0,300.0,,,True,,0.0,25.0,True,,,
177,,,html-keyboard-response,178,341966,0.0-16.0-2.5,1,1,2023-10-30 23:52:03,ec53d80472dcc330b6ccf60011d5c0d4,171.66.13.53,"Mozilla/5.0 (Macintosh; Intel Mac OS X 10_15_7) AppleWebKit/537.36 (KHTML, like Gecko) Chrome/118.0.0.0 Safari/537.36",Macintosh,Chrome,118.0.0.0,OS X,10_15_7,,"en-US,en;q=0.9",,,,,,,,,,,,,,,,,,,
178,,,html-keyboard-response,179,342475,0.0-16.0-0.6,1,1,2023-10-30 23:52:03,ec53d80472dcc330b6ccf60011d5c0d4,171.66.13.53,"Mozilla/5.0 (Macintosh; Intel Mac OS X 10_15_7) AppleWebKit/537.36 (KHTML, like Gecko) Chrome/118.0.0.0 Safari/537.36",Macintosh,Chrome,118.0.0.0,OS X,10_15_7,,"en-US,en;q=0.9",,,[object Object],,,,,,,,,,,,,,,,
179,,,audio-keyboard-response,180,344989,0.0-16.0-1.6,1,1,2023-10-30 23:52:03,ec53d80472dcc330b6ccf60011d5c0d4,171.66.13.53,"Mozilla/5.0 (Macintosh; Intel Mac OS X 10_15_7) AppleWebKit/537.36 (KHTML, like Gecko) Chrome/118.0.0.0 Safari/537.36",Macintosh,Chrome,118.0.0.0,OS X,10_15_7,,"en-US,en;q=0.9",sound/200,,,generalization,space,positive,2.0,700.0,300.0,,,False,200.0,-100.0,26.0,,,,
180,,,html-keyboard-response,181,345999,0.0-16.0-2.6,1,1,2023-10-30 23:52:03,ec53d80472dcc330b6ccf60011d5c0d4,171.66.13.53,"Mozilla/5.0 (Macintosh; Intel Mac OS X 10_15_7) AppleWebKit/537.36 (KHTML, like Gecko) Chrome/118.0.0.0 Safari/537.36",Macintosh,Chrome,118.0.0.0,OS X,10_15_7,,"en-US,en;q=0.9",<p style='font-weight:bold; color: red; font-size=100%'> - $0.40<br>RESPOND FASTER!</p>,,,,,,,,,,,,,,,,,,
181,,,html-keyboard-response,182,346509,0.0-16.0-0.7,1,1,2023-10-30 23:52:03,ec53d80472dcc330b6ccf60011d5c0d4,171.66.13.53,"Mozilla/5.0 (Macintosh; Intel Mac OS X 10_15_7) AppleWebKit/537.36 (KHTML, like Gecko) Chrome/118.0.0.0 Safari/537.36",Macintosh,Chrome,118.0.0.0,OS X,10_15_7,,"en-US,en;q=0.9",,,[object Object],,,,,,,,,,,,,,,,
182,,,audio-keyboard-response,183,349020,0.0-16.0-1.7,1,1,2023-10-30 23:52:03,ec53d80472dcc330b6ccf60011d5c0d4,171.66.13.53,"Mozilla/5.0 (Macintosh; Intel Mac OS X 10_15_7) AppleWebKit/537.36 (KHTML, like Gecko) Chrome/118.0.0.0 Safari/537.36",Macintosh,Chrome,118.0.0.0,OS X,10_15_7,,"en-US,en;q=0.9",sound/800,,,generalization,space,negative,2.0,700.0,300.0,,,False,800.0,100.0,27.0,,,,
183,,,html-keyboard-response,184,350031,0.0-16.0-2.7,1,1,2023-10-30 23:52:03,ec53d80472dcc330b6ccf60011d5c0d4,171.66.13.53,"Mozilla/5.0 (Macintosh; Intel Mac OS X 10_15_7) AppleWebKit/537.36 (KHTML, like Gecko) Chrome/118.0.0.0 Safari/537.36",Macintosh,Chrome,118.0.0.0,OS X,10_15_7,,"en-US,en;q=0.9",<p style='font-weight:bold; color: red; font-size=100%'> - $0.40<br>RESPOND FASTER!</p>,,,,,,,,,,,,,,,,,,
184,,,html-keyboard-response,185,350539,0.0-16.0-0.8,1,1,2023-10-30 23:52:03,ec53d80472dcc330b6ccf60011d5c0d4,171.66.13.53,"Mozilla/5.0 (Macintosh; Intel Mac OS X 10_15_7) AppleWebKit/537.36 (KHTML, like Gecko) Chrome/118.0.0.0 Safari/537.36",Macintosh,Chrome,118.0.0.0,OS X,10_15_7,,"en-US,en;q=0.9",,,[object Object],,,,,,,,,,,,,,,,
185,,,audio-keyboard-response,186,353049,0.0-16.0-1.8,1,1,2023-10-30 23:52:03,ec53d80472dcc330b6ccf60011d5c0d4,171.66.13.53,"Mozilla/5.0 (Macintosh; Intel Mac OS X 10_15_7) AppleWebKit/537.36 (KHTML, like Gecko) Chrome/118.0.0.0 Safari/537.36",Macintosh,Chrome,118.0.0.0,OS X,10_15_7,,"en-US,en;q=0.9",sound/280,,,generalization,space,positive,2.0,700.0,300.0,,,False,280.0,-20.0,28.0,,,,
186,,,html-keyboard-response,187,354059,0.0-16.0-2.8,1,1,2023-10-30 23:52:03,ec53d80472dcc330b6ccf60011d5c0d4,171.66.13.53,"Mozilla/5.0 (Macintosh; Intel Mac OS X 10_15_7) AppleWebKit/537.36 (KHTML, like Gecko) Chrome/118.0.0.0 Safari/537.36",Macintosh,Chrome,118.0.0.0,OS X,10_15_7,,"en-US,en;q=0.9",<p style='font-weight:bold; color: red; font-size=100%'> - $0.40<br>RESPOND FASTER!</p>,,,,,,,,,,,,,,,,,,
187,,,html-keyboard-response,188,354573,0.0-16.0-0.9,1,1,2023-10-30 23:52:03,ec53d80472dcc330b6ccf60011d5c0d4,171.66.13.53,"Mozilla/5.0 (Macintosh; Intel Mac OS X 10_15_7) AppleWebKit/537.36 (KHTML, like Gecko) Chrome/118.0.0.0 Safari/537.36",Macintosh,Chrome,118.0.0.0,OS X,10_15_7,,"en-US,en;q=0.9",,,[object Object],,,,,,,,,,,,,,,,
188,,,audio-keyboard-response,189,357083,0.0-16.0-1.9,1,1,2023-10-30 23:52:03,ec53d80472dcc330b6ccf60011d5c0d4,171.66.13.53,"Mozilla/5.0 (Macintosh; Intel Mac OS X 10_15_7) AppleWebKit/537.36 (KHTML, like Gecko) Chrome/118.0.0.0 Safari/537.36",Macintosh,Chrome,118.0.0.0,OS X,10_15_7,,"en-US,en;q=0.9",sound/300,,,generalization,q,positive,2.0,700.0,300.0,,,False,,0.0,29.0,,,,
189,,,html-keyboard-response,190,358091,0.0-16.0-2.9,1,1,2023-10-30 23:52:03,ec53d80472dcc330b6ccf60011d5c0d4,171.66.13.53,"Mozilla/5.0 (Macintosh; Intel Mac OS X 10_15_7) AppleWebKit/537.36 (KHTML, like Gecko) Chrome/118.0.0.0 Safari/537.36",Macintosh,Chrome,118.0.0.0,OS X,10_15_7,,"en-US,en;q=0.9",<p style='font-weight:bold; color: red; font-size=100%'> - $0.40<br>RESPOND FASTER!</p>,,,,,,,,,,,,,,,,,,
190,,3909.0,html-keyboard-response,191,362006,0.0-17.0,1,1,2023-10-30 23:52:03,ec53d80472dcc330b6ccf60011d5c0d4,171.66.13.53,"Mozilla/5.0 (Macintosh; Intel Mac OS X 10_15_7) AppleWebKit/537.36 (KHTML, like Gecko) Chrome/118.0.0.0 Safari/537.36",Macintosh,Chrome,118.0.0.0,OS X,10_15_7,,"en-US,en;q=0.9",bonus earned during this period: $0.04<br><br>Press any key to continue.,80.0,,,,,,,,,,,,,,,,,
191,,5259.0,survey-text,192,367272,0.0-18.0,1,1,2023-10-30 23:52:03,ec53d80472dcc330b6ccf60011d5c0d4,171.66.13.53,"Mozilla/5.0 (Macintosh; Intel Mac OS X 10_15_7) AppleWebKit/537.36 (KHTML, like Gecko) Chrome/118.0.0.0 Safari/537.36",Macintosh,Chrome,118.0.0.0,OS X,10_15_7,,"en-US,en;q=0.9",,,,,,,,,,,,,,,,,"{""Q0"":""amazinfg !!!!""}",,
0,"[{""page_index"":0,""viewing_time"":32961},{""page_index"":1,""viewing_time"":830},{""page_index"":2,""viewing_time"":857},{""page_index"":3,""viewing_time"":1916},{""page_index"":4,""viewing_time"":738},{""page_index"":5,""viewing_time"":1232},{""page_index"":6,""viewing_time"":467},{""page_index"":7,""viewing_time"":853},{""page_index"":8,""viewing_time"":686}]",40540.0,instructions,0,40541,0.0-0.0,3,1,2023-10-30 23:59:53,60d771905d4966a5e69ee61086df4a57,171.66.13.53,"Mozilla/5.0 (Macintosh; Intel Mac OS X 10_15_7) AppleWebKit/537.36 (KHTML, like Gecko) Chrome/118.0.0.0 Safari/537.36",Macintosh,Chrome,118.0.0.0,OS X,10_15_7,,"en-US,en;q=0.9",,,,,,,,,,,,,,,,,,,
1,,,html-keyboard-response,1,42557,0.0-1.0-0.0,3,1,2023-10-30 23:59:53,60d771905d4966a5e69ee61086df4a57,171.66.13.53,"Mozilla/5.0 (Macintosh; Intel Mac OS X 10_15_7) AppleWebKit/537.36 (KHTML, like Gecko) Chrome/118.0.0.0 Safari/537.36",Macintosh,Chrome,118.0.0.0,OS X,10_15_7,,"en-US,en;q=0.9","<div style=""font-size:120%; top:20%""></div>",,[object Object],,,,,,,,,,,,,,,,
2,,821.0,audio-keyboard-response,2,43431,0.0-1.0-1.0,3,1,2023-10-30 23:59:53,60d771905d4966a5e69ee61086df4a57,171.66.13.53,"Mozilla/5.0 (Macintosh; Intel Mac OS X 10_15_7) AppleWebKit/537.36 (KHTML, like Gecko) Chrome/118.0.0.0 Safari/537.36",Macintosh,Chrome,118.0.0.0,OS X,10_15_7,,"en-US,en;q=0.9",sound/500,80.0,,acquisition,,neutral,0.0,300.0,700.0,,500.0,,,,,,,,
3,,,html-keyboard-response,3,44539,0.0-1.0-2.0,3,1,2023-10-30 23:59:53,60d771905d4966a5e69ee61086df4a57,171.66.13.53,"Mozilla/5.0 (Macintosh; Intel Mac OS X 10_15_7) AppleWebKit/537.36 (KHTML, like Gecko) Chrome/118.0.0.0 Safari/537.36",Macintosh,Chrome,118.0.0.0,OS X,10_15_7,,"en-US,en;q=0.9","<font size=""100%""></font>",,,,,,,,,,,,,,,,,,
4,,,html-keyboard-response,4,46049,0.0-1.0-0.1,3,1,2023-10-30 23:59:53,60d771905d4966a5e69ee61086df4a57,171.66.13.53,"Mozilla/5.0 (Macintosh; Intel Mac OS X 10_15_7) AppleWebKit/537.36 (KHTML, like Gecko) Chrome/118.0.0.0 Safari/537.36",Macintosh,Chrome,118.0.0.0,OS X,10_15_7,,"en-US,en;q=0.9","<div style=""font-size:120%; top:20%""></div>",,[object Object],,,,,,,,,,,,,,,,
5,,101.0,audio-keyboard-response,5,48557,0.0-1.0-1.1,3,1,2023-10-30 23:59:53,60d771905d4966a5e69ee61086df4a57,171.66.13.53,"Mozilla/5.0 (Macintosh; Intel Mac OS X 10_15_7) AppleWebKit/537.36 (KHTML, like Gecko) Chrome/118.0.0.0 Safari/537.36",Macintosh,Chrome,118.0.0.0,OS X,10_15_7,,"en-US,en;q=0.9",sound/300,80.0,,acquisition,,negative,0.0,300.0,700.0,,300.0,False,,,,,,,
6,,,html-keyboard-response,6,49668,0.0-1.0-2.1,3,1,2023-10-30 23:59:53,60d771905d4966a5e69ee61086df4a57,171.66.13.53,"Mozilla/5.0 (Macintosh; Intel Mac OS X 10_15_7) AppleWebKit/537.36 (KHTML, like Gecko) Chrome/118.0.0.0 Safari/537.36",Macintosh,Chrome,118.0.0.0,OS X,10_15_7,,"en-US,en;q=0.9","<font size=""100%"" weight=bold> - $0.04</font>",,,,,,,,,,,,,,,,,,
7,,,html-keyboard-response,7,51180,0.0-1.0-0.2,3,1,2023-10-30 23:59:53,60d771905d4966a5e69ee61086df4a57,171.66.13.53,"Mozilla/5.0 (Macintosh; Intel Mac OS X 10_15_7) AppleWebKit/537.36 (KHTML, like Gecko) Chrome/118.0.0.0 Safari/537.36",Macintosh,Chrome,118.0.0.0,OS X,10_15_7,,"en-US,en;q=0.9","<div style=""font-size:120%; top:20%""></div>",,[object Object],,,,,,,,,,,,,,,,
8,,171.0,audio-keyboard-response,8,53682,0.0-1.0-1.2,3,1,2023-10-30 23:59:53,60d771905d4966a5e69ee61086df4a57,171.66.13.53,"Mozilla/5.0 (Macintosh; Intel Mac OS X 10_15_7) AppleWebKit/537.36 (KHTML, like Gecko) Chrome/118.0.0.0 Safari/537.36",Macintosh,Chrome,118.0.0.0,OS X,10_15_7,,"en-US,en;q=0.9",sound/700,80.0,,acquisition,,positive,0.0,300.0,700.0,,700.0,True,,,,,,,
9,,,html-keyboard-response,9,54794,0.0-1.0-2.2,3,1,2023-10-30 23:59:53,60d771905d4966a5e69ee61086df4a57,171.66.13.53,"Mozilla/5.0 (Macintosh; Intel Mac OS X 10_15_7) AppleWebKit/537.36 (KHTML, like Gecko) Chrome/118.0.0.0 Safari/537.36",Macintosh,Chrome,118.0.0.0,OS X,10_15_7,,"en-US,en;q=0.9","<font size=""100%"" weight=bold> + $0.04</font>",,,,,,,,,,,,,,,,,,
10,,,html-keyboard-response,10,56307,0.0-1.0-0.3,3,1,2023-10-30 23:59:53,60d771905d4966a5e69ee61086df4a57,171.66.13.53,"Mozilla/5.0 (Macintosh; Intel Mac OS X 10_15_7) AppleWebKit/537.36 (KHTML, like Gecko) Chrome/118.0.0.0 Safari/537.36",Macintosh,Chrome,118.0.0.0,OS X,10_15_7,,"en-US,en;q=0.9","<div style=""font-size:120%; top:20%""></div>",,[object Object],,,,,,,,,,,,,,,,
11,,939.0,audio-keyboard-response,11,57243,0.0-1.0-1.3,3,1,2023-10-30 23:59:53,60d771905d4966a5e69ee61086df4a57,171.66.13.53,"Mozilla/5.0 (Macintosh; Intel Mac OS X 10_15_7) AppleWebKit/537.36 (KHTML, like Gecko) Chrome/118.0.0.0 Safari/537.36",Macintosh,Chrome,118.0.0.0,OS X,10_15_7,,"en-US,en;q=0.9",sound/700,80.0,,acquisition,q,positive,0.0,300.0,700.0,,700.0,,,,,,,,
12,,,html-keyboard-response,12,58350,0.0-1.0-2.3,3,1,2023-10-30 23:59:53,60d771905d4966a5e69ee61086df4a57,171.66.13.53,"Mozilla/5.0 (Macintosh; Intel Mac OS X 10_15_7) AppleWebKit/537.36 (KHTML, like Gecko) Chrome/118.0.0.0 Safari/537.36",Macintosh,Chrome,118.0.0.0,OS X,10_15_7,,"en-US,en;q=0.9","<font size=""100%"" weight=bold> + $0.00 </font>",,,,,,,,,,,,,,,,,,
13,,,html-keyboard-response,13,59863,0.0-1.0-0.4,3,1,2023-10-30 23:59:53,60d771905d4966a5e69ee61086df4a57,171.66.13.53,"Mozilla/5.0 (Macintosh; Intel Mac OS X 10_15_7) AppleWebKit/537.36 (KHTML, like Gecko) Chrome/118.0.0.0 Safari/537.36",Macintosh,Chrome,118.0.0.0,OS X,10_15_7,,"en-US,en;q=0.9","<div style=""font-size:120%; top:20%""></div>",,[object Object],,,,,,,,,,,,,,,,
14,,,audio-keyboard-response,14,62371,0.0-1.0-1.4,3,1,2023-10-30 23:59:53,60d771905d4966a5e69ee61086df4a57,171.66.13.53,"Mozilla/5.0 (Macintosh; Intel Mac OS X 10_15_7) AppleWebKit/537.36 (KHTML, like Gecko) Chrome/118.0.0.0 Safari/537.36",Macintosh,Chrome,118.0.0.0,OS X,10_15_7,,"en-US,en;q=0.9",sound/300,,,acquisition,p,negative,0.0,300.0,700.0,,300.0,,,,,,,,
15,,,html-keyboard-response,15,63481,0.0-1.0-2.4,3,1,2023-10-30 23:59:53,60d771905d4966a5e69ee61086df4a57,171.66.13.53,"Mozilla/5.0 (Macintosh; Intel Mac OS X 10_15_7) AppleWebKit/537.36 (KHTML, like Gecko) Chrome/118.0.0.0 Safari/537.36",Macintosh,Chrome,118.0.0.0,OS X,10_15_7,,"en-US,en;q=0.9","<font size=""100%"" weight=bold> - $0.04</font>",,,,,,,,,,,,,,,,,,
16,,,html-keyboard-response,16,64996,0.0-1.0-0.5,3,1,2023-10-30 23:59:53,60d771905d4966a5e69ee61086df4a57,171.66.13.53,"Mozilla/5.0 (Macintosh; Intel Mac OS X 10_15_7) AppleWebKit/537.36 (KHTML, like Gecko) Chrome/118.0.0.0 Safari/537.36",Macintosh,Chrome,118.0.0.0,OS X,10_15_7,,"en-US,en;q=0.9","<div style=""font-size:120%; top:20%""></div>",,[object Object],,,,,,,,,,,,,,,,
17,,75.0,audio-keyboard-response,17,65077,0.0-1.0-1.5,3,1,2023-10-30 23:59:53,60d771905d4966a5e69ee61086df4a57,171.66.13.53,"Mozilla/5.0 (Macintosh; Intel Mac OS X 10_15_7) AppleWebKit/537.36 (KHTML, like Gecko) Chrome/118.0.0.0 Safari/537.36",Macintosh,Chrome,118.0.0.0,OS X,10_15_7,,"en-US,en;q=0.9",sound/700,80.0,,acquisition,q,positive,0.0,300.0,700.0,,700.0,,,,,,,,
18,,,html-keyboard-response,18,66182,0.0-1.0-2.5,3,1,2023-10-30 23:59:53,60d771905d4966a5e69ee61086df4a57,171.66.13.53,"Mozilla/5.0 (Macintosh; Intel Mac OS X 10_15_7) AppleWebKit/537.36 (KHTML, like Gecko) Chrome/118.0.0.0 Safari/537.36",Macintosh,Chrome,118.0.0.0,OS X,10_15_7,,"en-US,en;q=0.9","<font size=""100%"" weight=bold> + $0.00 </font>",,,,,,,,,,,,,,,,,,
19,,,html-keyboard-response,19,67696,0.0-1.0-0.6,3,1,2023-10-30 23:59:53,60d771905d4966a5e69ee61086df4a57,171.66.13.53,"Mozilla/5.0 (Macintosh; Intel Mac OS X 10_15_7) AppleWebKit/537.36 (KHTML, like Gecko) Chrome/118.0.0.0 Safari/537.36",Macintosh,Chrome,118.0.0.0,OS X,10_15_7,,"en-US,en;q=0.9","<div style=""font-size:120%; top:20%""></div>",,[object Object],,,,,,,,,,,,,,,,
20,,219.0,audio-keyboard-response,20,70203,0.0-1.0-1.6,3,1,2023-10-30 23:59:53,60d771905d4966a5e69ee61086df4a57,171.66.13.53,"Mozilla/5.0 (Macintosh; Intel Mac OS X 10_15_7) AppleWebKit/537.36 (KHTML, like Gecko) Chrome/118.0.0.0 Safari/537.36",Macintosh,Chrome,118.0.0.0,OS X,10_15_7,,"en-US,en;q=0.9",sound/700,80.0,,acquisition,,positive,0.0,300.0,700.0,,700.0,True,,,,,,,
21,,,html-keyboard-response,21,71316,0.0-1.0-2.6,3,1,2023-10-30 23:59:53,60d771905d4966a5e69ee61086df4a57,171.66.13.53,"Mozilla/5.0 (Macintosh; Intel Mac OS X 10_15_7) AppleWebKit/537.36 (KHTML, like Gecko) Chrome/118.0.0.0 Safari/537.36",Macintosh,Chrome,118.0.0.0,OS X,10_15_7,,"en-US,en;q=0.9","<font size=""100%"" weight=bold> + $0.04</font>",,,,,,,,,,,,,,,,,,
22,,,html-keyboard-response,22,72825,0.0-1.0-0.7,3,1,2023-10-30 23:59:53,60d771905d4966a5e69ee61086df4a57,171.66.13.53,"Mozilla/5.0 (Macintosh; Intel Mac OS X 10_15_7) AppleWebKit/537.36 (KHTML, like Gecko) Chrome/118.0.0.0 Safari/537.36",Macintosh,Chrome,118.0.0.0,OS X,10_15_7,,"en-US,en;q=0.9","<div style=""font-size:120%; top:20%""></div>",,[object Object],,,,,,,,,,,,,,,,
23,,288.0,audio-keyboard-response,23,75334,0.0-1.0-1.7,3,1,2023-10-30 23:59:53,60d771905d4966a5e69ee61086df4a57,171.66.13.53,"Mozilla/5.0 (Macintosh; Intel Mac OS X 10_15_7) AppleWebKit/537.36 (KHTML, like Gecko) Chrome/118.0.0.0 Safari/537.36",Macintosh,Chrome,118.0.0.0,OS X,10_15_7,,"en-US,en;q=0.9",sound/300,80.0,,acquisition,,negative,0.0,300.0,700.0,,300.0,False,,,,,,,
24,,,html-keyboard-response,24,76441,0.0-1.0-2.7,3,1,2023-10-30 23:59:53,60d771905d4966a5e69ee61086df4a57,171.66.13.53,"Mozilla/5.0 (Macintosh; Intel Mac OS X 10_15_7) AppleWebKit/537.36 (KHTML, like Gecko) Chrome/118.0.0.0 Safari/537.36",Macintosh,Chrome,118.0.0.0,OS X,10_15_7,,"en-US,en;q=0.9","<font size=""100%"" weight=bold> - $0.04</font>",,,,,,,,,,,,,,,,,,
25,,,html-keyboard-response,25,77957,0.0-1.0-0.8,3,1,2023-10-30 23:59:53,60d771905d4966a5e69ee61086df4a57,171.66.13.53,"Mozilla/5.0 (Macintosh; Intel Mac OS X 10_15_7) AppleWebKit/537.36 (KHTML, like Gecko) Chrome/118.0.0.0 Safari/537.36",Macintosh,Chrome,118.0.0.0,OS X,10_15_7,,"en-US,en;q=0.9","<div style=""font-size:120%; top:20%""></div>",,[object Object],,,,,,,,,,,,,,,,
26,,933.0,audio-keyboard-response,26,78896,0.0-1.0-1.8,3,1,2023-10-30 23:59:53,60d771905d4966a5e69ee61086df4a57,171.66.13.53,"Mozilla/5.0 (Macintosh; Intel Mac OS X 10_15_7) AppleWebKit/537.36 (KHTML, like Gecko) Chrome/118.0.0.0 Safari/537.36",Macintosh,Chrome,118.0.0.0,OS X,10_15_7,,"en-US,en;q=0.9",sound/500,80.0,,acquisition,,neutral,0.0,300.0,700.0,,500.0,,,,,,,,
27,,,html-keyboard-response,27,80009,0.0-1.0-2.8,3,1,2023-10-30 23:59:53,60d771905d4966a5e69ee61086df4a57,171.66.13.53,"Mozilla/5.0 (Macintosh; Intel Mac OS X 10_15_7) AppleWebKit/537.36 (KHTML, like Gecko) Chrome/118.0.0.0 Safari/537.36",Macintosh,Chrome,118.0.0.0,OS X,10_15_7,,"en-US,en;q=0.9","<font size=""100%""></font>",,,,,,,,,,,,,,,,,,
28,,,html-keyboard-response,28,81514,0.0-1.0-0.9,3,1,2023-10-30 23:59:53,60d771905d4966a5e69ee61086df4a57,171.66.13.53,"Mozilla/5.0 (Macintosh; Intel Mac OS X 10_15_7) AppleWebKit/537.36 (KHTML, like Gecko) Chrome/118.0.0.0 Safari/537.36",Macintosh,Chrome,118.0.0.0,OS X,10_15_7,,"en-US,en;q=0.9","<div style=""font-size:120%; top:20%""></div>",,[object Object],,,,,,,,,,,,,,,,
29,,,audio-keyboard-response,29,84023,0.0-1.0-1.9,3,1,2023-10-30 23:59:53,60d771905d4966a5e69ee61086df4a57,171.66.13.53,"Mozilla/5.0 (Macintosh; Intel Mac OS X 10_15_7) AppleWebKit/537.36 (KHTML, like Gecko) Chrome/118.0.0.0 Safari/537.36",Macintosh,Chrome,118.0.0.0,OS X,10_15_7,,"en-US,en;q=0.9",sound/300,,,acquisition,p,negative,0.0,300.0,700.0,,300.0,,,,,,,,
30,,,html-keyboard-response,30,85134,0.0-1.0-2.9,3,1,2023-10-30 23:59:53,60d771905d4966a5e69ee61086df4a57,171.66.13.53,"Mozilla/5.0 (Macintosh; Intel Mac OS X 10_15_7) AppleWebKit/537.36 (KHTML, like Gecko) Chrome/118.0.0.0 Safari/537.36",Macintosh,Chrome,118.0.0.0,OS X,10_15_7,,"en-US,en;q=0.9","<font size=""100%"" weight=bold> - $0.04</font>",,,,,,,,,,,,,,,,,,
31,,51.0,html-keyboard-response,31,85697,0.0-2.0,3,1,2023-10-30 23:59:53,60d771905d4966a5e69ee61086df4a57,171.66.13.53,"Mozilla/5.0 (Macintosh; Intel Mac OS X 10_15_7) AppleWebKit/537.36 (KHTML, like Gecko) Chrome/118.0.0.0 Safari/537.36",Macintosh,Chrome,118.0.0.0,OS X,10_15_7,,"en-US,en;q=0.9",The total bonus amount of bonus you earned in this last period was $0.00.<br> Press any key to continue to the next step.,80.0,,,,,,,,,,,,,,,,,
32,"[{""page_index"":0,""viewing_time"":1295},{""page_index"":1,""viewing_time"":1057},{""page_index"":2,""viewing_time"":926},{""page_index"":3,""viewing_time"":1301},{""page_index"":4,""viewing_time"":1014}]",5594.0,instructions,32,91291,0.0-3.0,3,1,2023-10-30 23:59:53,60d771905d4966a5e69ee61086df4a57,171.66.13.53,"Mozilla/5.0 (Macintosh; Intel Mac OS X 10_15_7) AppleWebKit/537.36 (KHTML, like Gecko) Chrome/118.0.0.0 Safari/537.36",Macintosh,Chrome,118.0.0.0,OS X,10_15_7,,"en-US,en;q=0.9",,,,,,,,,,,,,,,,,,,
33,,,html-keyboard-response,33,92207,0.0-4.0-0.0,3,1,2023-10-30 23:59:53,60d771905d4966a5e69ee61086df4a57,171.66.13.53,"Mozilla/5.0 (Macintosh; Intel Mac OS X 10_15_7) AppleWebKit/537.36 (KHTML, like Gecko) Chrome/118.0.0.0 Safari/537.36",Macintosh,Chrome,118.0.0.0,OS X,10_15_7,,"en-US,en;q=0.9",,,[object Object],,,,,,,,,,,,,,,,
34,,,audio-keyboard-response,34,94715,0.0-4.0-1.0,3,1,2023-10-30 23:59:53,60d771905d4966a5e69ee61086df4a57,171.66.13.53,"Mozilla/5.0 (Macintosh; Intel Mac OS X 10_15_7) AppleWebKit/537.36 (KHTML, like Gecko) Chrome/118.0.0.0 Safari/537.36",Macintosh,Chrome,118.0.0.0,OS X,10_15_7,,"en-US,en;q=0.9",sound/300,,,generalization,p,negative,0.0,300.0,700.0,,,False,,0.0,0.0,,,,
35,,,html-keyboard-response,35,95723,0.0-4.0-2.0,3,1,2023-10-30 23:59:53,60d771905d4966a5e69ee61086df4a57,171.66.13.53,"Mozilla/5.0 (Macintosh; Intel Mac OS X 10_15_7) AppleWebKit/537.36 (KHTML, like Gecko) Chrome/118.0.0.0 Safari/537.36",Macintosh,Chrome,118.0.0.0,OS X,10_15_7,,"en-US,en;q=0.9",<p style='font-weight:bold; color: red; font-size=100%'> - $0.40<br>RESPOND FASTER!</p>,,,,,,,,,,,,,,,,,,
36,,,html-keyboard-response,36,96230,0.0-4.0-0.1,3,1,2023-10-30 23:59:53,60d771905d4966a5e69ee61086df4a57,171.66.13.53,"Mozilla/5.0 (Macintosh; Intel Mac OS X 10_15_7) AppleWebKit/537.36 (KHTML, like Gecko) Chrome/118.0.0.0 Safari/537.36",Macintosh,Chrome,118.0.0.0,OS X,10_15_7,,"en-US,en;q=0.9",,,[object Object],,,,,,,,,,,,,,,,
37,,197.0,audio-keyboard-response,37,96437,0.0-4.0-1.1,3,1,2023-10-30 23:59:53,60d771905d4966a5e69ee61086df4a57,171.66.13.53,"Mozilla/5.0 (Macintosh; Intel Mac OS X 10_15_7) AppleWebKit/537.36 (KHTML, like Gecko) Chrome/118.0.0.0 Safari/537.36",Macintosh,Chrome,118.0.0.0,OS X,10_15_7,,"en-US,en;q=0.9",sound/800,80.0,,generalization,space,positive,0.0,300.0,700.0,,,False,800.0,100.0,1.0,False,,,
38,,,html-keyboard-response,38,97447,0.0-4.0-2.1,3,1,2023-10-30 23:59:53,60d771905d4966a5e69ee61086df4a57,171.66.13.53,"Mozilla/5.0 (Macintosh; Intel Mac OS X 10_15_7) AppleWebKit/537.36 (KHTML, like Gecko) Chrome/118.0.0.0 Safari/537.36",Macintosh,Chrome,118.0.0.0,OS X,10_15_7,,"en-US,en;q=0.9",,,,,,,,,,,,,,,,,,,
39,,,html-keyboard-response,39,97956,0.0-4.0-0.2,3,1,2023-10-30 23:59:53,60d771905d4966a5e69ee61086df4a57,171.66.13.53,"Mozilla/5.0 (Macintosh; Intel Mac OS X 10_15_7) AppleWebKit/537.36 (KHTML, like Gecko) Chrome/118.0.0.0 Safari/537.36",Macintosh,Chrome,118.0.0.0,OS X,10_15_7,,"en-US,en;q=0.9",,,[object Object],,,,,,,,,,,,,,,,
40,,240.0,audio-keyboard-response,40,98195,0.0-4.0-1.2,3,1,2023-10-30 23:59:53,60d771905d4966a5e69ee61086df4a57,171.66.13.53,"Mozilla/5.0 (Macintosh; Intel Mac OS X 10_15_7) AppleWebKit/537.36 (KHTML, like Gecko) Chrome/118.0.0.0 Safari/537.36",Macintosh,Chrome,118.0.0.0,OS X,10_15_7,,"en-US,en;q=0.9",sound/600,80.0,,generalization,space,positive,0.0,300.0,700.0,,,False,600.0,-100.0,2.0,False,,,
41,,,html-keyboard-response,41,99201,0.0-4.0-2.2,3,1,2023-10-30 23:59:53,60d771905d4966a5e69ee61086df4a57,171.66.13.53,"Mozilla/5.0 (Macintosh; Intel Mac OS X 10_15_7) AppleWebKit/537.36 (KHTML, like Gecko) Chrome/118.0.0.0 Safari/537.36",Macintosh,Chrome,118.0.0.0,OS X,10_15_7,,"en-US,en;q=0.9",,,,,,,,,,,,,,,,,,,
42,,,html-keyboard-response,42,99710,0.0-4.0-0.3,3,1,2023-10-30 23:59:53,60d771905d4966a5e69ee61086df4a57,171.66.13.53,"Mozilla/5.0 (Macintosh; Intel Mac OS X 10_15_7) AppleWebKit/537.36 (KHTML, like Gecko) Chrome/118.0.0.0 Safari/537.36",Macintosh,Chrome,118.0.0.0,OS X,10_15_7,,"en-US,en;q=0.9",,,[object Object],,,,,,,,,,,,,,,,
43,,155.0,audio-keyboard-response,43,99865,0.0-4.0-1.3,3,1,2023-10-30 23:59:53,60d771905d4966a5e69ee61086df4a57,171.66.13.53,"Mozilla/5.0 (Macintosh; Intel Mac OS X 10_15_7) AppleWebKit/537.36 (KHTML, like Gecko) Chrome/118.0.0.0 Safari/537.36",Macintosh,Chrome,118.0.0.0,OS X,10_15_7,,"en-US,en;q=0.9",sound/200,80.0,,generalization,space,negative,0.0,300.0,700.0,,,False,200.0,-100.0,3.0,True,,,
44,,,html-keyboard-response,44,100873,0.0-4.0-2.3,3,1,2023-10-30 23:59:53,60d771905d4966a5e69ee61086df4a57,171.66.13.53,"Mozilla/5.0 (Macintosh; Intel Mac OS X 10_15_7) AppleWebKit/537.36 (KHTML, like Gecko) Chrome/118.0.0.0 Safari/537.36",Macintosh,Chrome,118.0.0.0,OS X,10_15_7,,"en-US,en;q=0.9",,,,,,,,,,,,,,,,,,,
45,,,html-keyboard-response,45,101379,0.0-4.0-0.4,3,1,2023-10-30 23:59:53,60d771905d4966a5e69ee61086df4a57,171.66.13.53,"Mozilla/5.0 (Macintosh; Intel Mac OS X 10_15_7) AppleWebKit/537.36 (KHTML, like Gecko) Chrome/118.0.0.0 Safari/537.36",Macintosh,Chrome,118.0.0.0,OS X,10_15_7,,"en-US,en;q=0.9",,,[object Object],,,,,,,,,,,,,,,,
46,,0.0,audio-keyboard-response,46,101382,0.0-4.0-1.4,3,1,2023-10-30 23:59:53,60d771905d4966a5e69ee61086df4a57,171.66.13.53,"Mozilla/5.0 (Macintosh; Intel Mac OS X 10_15_7) AppleWebKit/537.36 (KHTML, like Gecko) Chrome/118.0.0.0 Safari/537.36",Macintosh,Chrome,118.0.0.0,OS X,10_15_7,,"en-US,en;q=0.9",sound/280,80.0,,generalization,space,negative,0.0,300.0,700.0,,,False,280.0,-20.0,4.0,True,,,
47,,,html-keyboard-response,47,102388,0.0-4.0-2.4,3,1,2023-10-30 23:59:53,60d771905d4966a5e69ee61086df4a57,171.66.13.53,"Mozilla/5.0 (Macintosh; Intel Mac OS X 10_15_7) AppleWebKit/537.36 (KHTML, like Gecko) Chrome/118.0.0.0 Safari/537.36",Macintosh,Chrome,118.0.0.0,OS X,10_15_7,,"en-US,en;q=0.9",,,,,,,,,,,,,,,,,,,
48,,,html-keyboard-response,48,102893,0.0-4.0-0.5,3,1,2023-10-30 23:59:53,60d771905d4966a5e69ee61086df4a57,171.66.13.53,"Mozilla/5.0 (Macintosh; Intel Mac OS X 10_15_7) AppleWebKit/537.36 (KHTML, like Gecko) Chrome/118.0.0.0 Safari/537.36",Macintosh,Chrome,118.0.0.0,OS X,10_15_7,,"en-US,en;q=0.9",,,[object Object],,,,,,,,,,,,,,,,
49,,59.0,audio-keyboard-response,49,102958,0.0-4.0-1.5,3,1,2023-10-30 23:59:53,60d771905d4966a5e69ee61086df4a57,171.66.13.53,"Mozilla/5.0 (Macintosh; Intel Mac OS X 10_15_7) AppleWebKit/537.36 (KHTML, like Gecko) Chrome/118.0.0.0 Safari/537.36",Macintosh,Chrome,118.0.0.0,OS X,10_15_7,,"en-US,en;q=0.9",sound/400,80.0,,generalization,space,negative,0.0,300.0,700.0,,,False,400.0,100.0,5.0,True,,,
50,,,html-keyboard-response,50,103964,0.0-4.0-2.5,3,1,2023-10-30 23:59:53,60d771905d4966a5e69ee61086df4a57,171.66.13.53,"Mozilla/5.0 (Macintosh; Intel Mac OS X 10_15_7) AppleWebKit/537.36 (KHTML, like Gecko) Chrome/118.0.0.0 Safari/537.36",Macintosh,Chrome,118.0.0.0,OS X,10_15_7,,"en-US,en;q=0.9",,,,,,,,,,,,,,,,,,,
51,,,html-keyboard-response,51,104472,0.0-4.0-0.6,3,1,2023-10-30 23:59:53,60d771905d4966a5e69ee61086df4a57,171.66.13.53,"Mozilla/5.0 (Macintosh; Intel Mac OS X 10_15_7) AppleWebKit/537.36 (KHTML, like Gecko) Chrome/118.0.0.0 Safari/537.36",Macintosh,Chrome,118.0.0.0,OS X,10_15_7,,"en-US,en;q=0.9",,,[object Object],,,,,,,,,,,,,,,,
52,,,audio-keyboard-response,52,106980,0.0-4.0-1.6,3,1,2023-10-30 23:59:53,60d771905d4966a5e69ee61086df4a57,171.66.13.53,"Mozilla/5.0 (Macintosh; Intel Mac OS X 10_15_7) AppleWebKit/537.36 (KHTML, like Gecko) Chrome/118.0.0.0 Safari/537.36",Macintosh,Chrome,118.0.0.0,OS X,10_15_7,,"en-US,en;q=0.9",sound/320,,,generalization,space,negative,0.0,300.0,700.0,,,False,320.0,20.0,6.0,,,,
53,,,html-keyboard-response,53,107992,0.0-4.0-2.6,3,1,2023-10-30 23:59:53,60d771905d4966a5e69ee61086df4a57,171.66.13.53,"Mozilla/5.0 (Macintosh; Intel Mac OS X 10_15_7) AppleWebKit/537.36 (KHTML, like Gecko) Chrome/118.0.0.0 Safari/537.36",Macintosh,Chrome,118.0.0.0,OS X,10_15_7,,"en-US,en;q=0.9",<p style='font-weight:bold; color: red; font-size=100%'> - $0.40<br>RESPOND FASTER!</p>,,,,,,,,,,,,,,,,,,
54,,,html-keyboard-response,54,108498,0.0-4.0-0.7,3,1,2023-10-30 23:59:53,60d771905d4966a5e69ee61086df4a57,171.66.13.53,"Mozilla/5.0 (Macintosh; Intel Mac OS X 10_15_7) AppleWebKit/537.36 (KHTML, like Gecko) Chrome/118.0.0.0 Safari/537.36",Macintosh,Chrome,118.0.0.0,OS X,10_15_7,,"en-US,en;q=0.9",,,[object Object],,,,,,,,,,,,,,,,
55,,501.0,audio-keyboard-response,55,108999,0.0-4.0-1.7,3,1,2023-10-30 23:59:53,60d771905d4966a5e69ee61086df4a57,171.66.13.53,"Mozilla/5.0 (Macintosh; Intel Mac OS X 10_15_7) AppleWebKit/537.36 (KHTML, like Gecko) Chrome/118.0.0.0 Safari/537.36",Macintosh,Chrome,118.0.0.0,OS X,10_15_7,,"en-US,en;q=0.9",sound/700,80.0,,generalization,q,positive,0.0,300.0,700.0,,,False,,0.0,7.0,False,,,
56,,,html-keyboard-response,56,110002,0.0-4.0-2.7,3,1,2023-10-30 23:59:53,60d771905d4966a5e69ee61086df4a57,171.66.13.53,"Mozilla/5.0 (Macintosh; Intel Mac OS X 10_15_7) AppleWebKit/537.36 (KHTML, like Gecko) Chrome/118.0.0.0 Safari/537.36",Macintosh,Chrome,118.0.0.0,OS X,10_15_7,,"en-US,en;q=0.9",,,,,,,,,,,,,,,,,,,
57,,,html-keyboard-response,57,110513,0.0-4.0-0.8,3,1,2023-10-30 23:59:53,60d771905d4966a5e69ee61086df4a57,171.66.13.53,"Mozilla/5.0 (Macintosh; Intel Mac OS X 10_15_7) AppleWebKit/537.36 (KHTML, like Gecko) Chrome/118.0.0.0 Safari/537.36",Macintosh,Chrome,118.0.0.0,OS X,10_15_7,,"en-US,en;q=0.9",,,[object Object],,,,,,,,,,,,,,,,
58,,91.0,audio-keyboard-response,58,110613,0.0-4.0-1.8,3,1,2023-10-30 23:59:53,60d771905d4966a5e69ee61086df4a57,171.66.13.53,"Mozilla/5.0 (Macintosh; Intel Mac OS X 10_15_7) AppleWebKit/537.36 (KHTML, like Gecko) Chrome/118.0.0.0 Safari/537.36",Macintosh,Chrome,118.0.0.0,OS X,10_15_7,,"en-US,en;q=0.9",sound/720,81.0,,generalization,space,positive,0.0,300.0,700.0,,,False,720.0,20.0,8.0,True,,,
59,,,html-keyboard-response,59,111623,0.0-4.0-2.8,3,1,2023-10-30 23:59:53,60d771905d4966a5e69ee61086df4a57,171.66.13.53,"Mozilla/5.0 (Macintosh; Intel Mac OS X 10_15_7) AppleWebKit/537.36 (KHTML, like Gecko) Chrome/118.0.0.0 Safari/537.36",Macintosh,Chrome,118.0.0.0,OS X,10_15_7,,"en-US,en;q=0.9",,,,,,,,,,,,,,,,,,,
60,,,html-keyboard-response,60,112129,0.0-4.0-0.9,3,1,2023-10-30 23:59:53,60d771905d4966a5e69ee61086df4a57,171.66.13.53,"Mozilla/5.0 (Macintosh; Intel Mac OS X 10_15_7) AppleWebKit/537.36 (KHTML, like Gecko) Chrome/118.0.0.0 Safari/537.36",Macintosh,Chrome,118.0.0.0,OS X,10_15_7,,"en-US,en;q=0.9",,,[object Object],,,,,,,,,,,,,,,,
61,,,audio-keyboard-response,61,114635,0.0-4.0-1.9,3,1,2023-10-30 23:59:53,60d771905d4966a5e69ee61086df4a57,171.66.13.53,"Mozilla/5.0 (Macintosh; Intel Mac OS X 10_15_7) AppleWebKit/537.36 (KHTML, like Gecko) Chrome/118.0.0.0 Safari/537.36",Macintosh,Chrome,118.0.0.0,OS X,10_15_7,,"en-US,en;q=0.9",sound/680,,,generalization,space,positive,0.0,300.0,700.0,,,False,680.0,-20.0,9.0,,,,
62,,,html-keyboard-response,62,115642,0.0-4.0-2.9,3,1,2023-10-30 23:59:53,60d771905d4966a5e69ee61086df4a57,171.66.13.53,"Mozilla/5.0 (Macintosh; Intel Mac OS X 10_15_7) AppleWebKit/537.36 (KHTML, like Gecko) Chrome/118.0.0.0 Safari/537.36",Macintosh,Chrome,118.0.0.0,OS X,10_15_7,,"en-US,en;q=0.9",<p style='font-weight:bold; color: red; font-size=100%'> - $0.40<br>RESPOND FASTER!</p>,,,,,,,,,,,,,,,,,,
63,,2312.0,html-keyboard-response,63,117959,0.0-5.0,3,1,2023-10-30 23:59:53,60d771905d4966a5e69ee61086df4a57,171.66.13.53,"Mozilla/5.0 (Macintosh; Intel Mac OS X 10_15_7) AppleWebKit/537.36 (KHTML, like Gecko) Chrome/118.0.0.0 Safari/537.36",Macintosh,Chrome,118.0.0.0,OS X,10_15_7,,"en-US,en;q=0.9",bonus earned during this period: $0.00<br><br>Press any key to continue.,81.0,,,,,,,,,,,,,,,,,
64,"[{""page_index"":0,""viewing_time"":10181}]",10181.0,instructions,64,128141,0.0-6.0,3,1,2023-10-30 23:59:53,60d771905d4966a5e69ee61086df4a57,171.66.13.53,"Mozilla/5.0 (Macintosh; Intel Mac OS X 10_15_7) AppleWebKit/537.36 (KHTML, like Gecko) Chrome/118.0.0.0 Safari/537.36",Macintosh,Chrome,118.0.0.0,OS X,10_15_7,,"en-US,en;q=0.9",,,,,,,,,,,,,,,,,,,
65,,,html-keyboard-response,65,129557,0.0-7.0-0.0,3,1,2023-10-30 23:59:53,60d771905d4966a5e69ee61086df4a57,171.66.13.53,"Mozilla/5.0 (Macintosh; Intel Mac OS X 10_15_7) AppleWebKit/537.36 (KHTML, like Gecko) Chrome/118.0.0.0 Safari/537.36",Macintosh,Chrome,118.0.0.0,OS X,10_15_7,,"en-US,en;q=0.9","<div style=""font-size:120%; top:20%""></div>",,[object Object],,,,,,,,,,,,,,,,
66,,800.0,audio-keyboard-response,66,130359,0.0-7.0-1.0,3,1,2023-10-30 23:59:53,60d771905d4966a5e69ee61086df4a57,171.66.13.53,"Mozilla/5.0 (Macintosh; Intel Mac OS X 10_15_7) AppleWebKit/537.36 (KHTML, like Gecko) Chrome/118.0.0.0 Safari/537.36",Macintosh,Chrome,118.0.0.0,OS X,10_15_7,,"en-US,en;q=0.9",sound/300,81.0,,acquisition,p,negative,1.0,300.0,700.0,,300.0,,,,,,,,
67,,,html-keyboard-response,67,131472,0.0-7.0-2.0,3,1,2023-10-30 23:59:53,60d771905d4966a5e69ee61086df4a57,171.66.13.53,"Mozilla/5.0 (Macintosh; Intel Mac OS X 10_15_7) AppleWebKit/537.36 (KHTML, like Gecko) Chrome/118.0.0.0 Safari/537.36",Macintosh,Chrome,118.0.0.0,OS X,10_15_7,,"en-US,en;q=0.9","<font size=""100%"" weight=bold> - $0.04</font>",,,,,,,,,,,,,,,,,,
68,,,html-keyboard-response,68,132983,0.0-7.0-0.1,3,1,2023-10-30 23:59:53,60d771905d4966a5e69ee61086df4a57,171.66.13.53,"Mozilla/5.0 (Macintosh; Intel Mac OS X 10_15_7) AppleWebKit/537.36 (KHTML, like Gecko) Chrome/118.0.0.0 Safari/537.36",Macintosh,Chrome,118.0.0.0,OS X,10_15_7,,"en-US,en;q=0.9","<div style=""font-size:120%; top:20%""></div>",,[object Object],,,,,,,,,,,,,,,,
69,,37.0,audio-keyboard-response,69,133026,0.0-7.0-1.1,3,1,2023-10-30 23:59:53,60d771905d4966a5e69ee61086df4a57,171.66.13.53,"Mozilla/5.0 (Macintosh; Intel Mac OS X 10_15_7) AppleWebKit/537.36 (KHTML, like Gecko) Chrome/118.0.0.0 Safari/537.36",Macintosh,Chrome,118.0.0.0,OS X,10_15_7,,"en-US,en;q=0.9",sound/700,81.0,,acquisition,q,positive,1.0,300.0,700.0,,700.0,,,,,,,,
70,,,html-keyboard-response,70,134134,0.0-7.0-2.1,3,1,2023-10-30 23:59:53,60d771905d4966a5e69ee61086df4a57,171.66.13.53,"Mozilla/5.0 (Macintosh; Intel Mac OS X 10_15_7) AppleWebKit/537.36 (KHTML, like Gecko) Chrome/118.0.0.0 Safari/537.36",Macintosh,Chrome,118.0.0.0,OS X,10_15_7,,"en-US,en;q=0.9","<font size=""100%"" weight=bold> + $0.00 </font>",,,,,,,,,,,,,,,,,,
71,,,html-keyboard-response,71,135646,0.0-7.0-0.2,3,1,2023-10-30 23:59:53,60d771905d4966a5e69ee61086df4a57,171.66.13.53,"Mozilla/5.0 (Macintosh; Intel Mac OS X 10_15_7) AppleWebKit/537.36 (KHTML, like Gecko) Chrome/118.0.0.0 Safari/537.36",Macintosh,Chrome,118.0.0.0,OS X,10_15_7,,"en-US,en;q=0.9","<div style=""font-size:120%; top:20%""></div>",,[object Object],,,,,,,,,,,,,,,,
72,,437.0,audio-keyboard-response,72,136090,0.0-7.0-1.2,3,1,2023-10-30 23:59:53,60d771905d4966a5e69ee61086df4a57,171.66.13.53,"Mozilla/5.0 (Macintosh; Intel Mac OS X 10_15_7) AppleWebKit/537.36 (KHTML, like Gecko) Chrome/118.0.0.0 Safari/537.36",Macintosh,Chrome,118.0.0.0,OS X,10_15_7,,"en-US,en;q=0.9",sound/500,81.0,,acquisition,,neutral,1.0,300.0,700.0,,500.0,,,,,,,,
73,,,html-keyboard-response,73,137199,0.0-7.0-2.2,3,1,2023-10-30 23:59:53,60d771905d4966a5e69ee61086df4a57,171.66.13.53,"Mozilla/5.0 (Macintosh; Intel Mac OS X 10_15_7) AppleWebKit/537.36 (KHTML, like Gecko) Chrome/118.0.0.0 Safari/537.36",Macintosh,Chrome,118.0.0.0,OS X,10_15_7,,"en-US,en;q=0.9","<font size=""100%""></font>",,,,,,,,,,,,,,,,,,
74,,,html-keyboard-response,74,138722,0.0-7.0-0.3,3,1,2023-10-30 23:59:53,60d771905d4966a5e69ee61086df4a57,171.66.13.53,"Mozilla/5.0 (Macintosh; Intel Mac OS X 10_15_7) AppleWebKit/537.36 (KHTML, like Gecko) Chrome/118.0.0.0 Safari/537.36",Macintosh,Chrome,118.0.0.0,OS X,10_15_7,,"en-US,en;q=0.9","<div style=""font-size:120%; top:20%""></div>",,[object Object],,,,,,,,,,,,,,,,
75,,763.0,audio-keyboard-response,75,141233,0.0-7.0-1.3,3,1,2023-10-30 23:59:53,60d771905d4966a5e69ee61086df4a57,171.66.13.53,"Mozilla/5.0 (Macintosh; Intel Mac OS X 10_15_7) AppleWebKit/537.36 (KHTML, like Gecko) Chrome/118.0.0.0 Safari/537.36",Macintosh,Chrome,118.0.0.0,OS X,10_15_7,,"en-US,en;q=0.9",sound/700,81.0,,acquisition,,positive,1.0,300.0,700.0,,700.0,True,,,,,,,
76,,,html-keyboard-response,76,142343,0.0-7.0-2.3,3,1,2023-10-30 23:59:53,60d771905d4966a5e69ee61086df4a57,171.66.13.53,"Mozilla/5.0 (Macintosh; Intel Mac OS X 10_15_7) AppleWebKit/537.36 (KHTML, like Gecko) Chrome/118.0.0.0 Safari/537.36",Macintosh,Chrome,118.0.0.0,OS X,10_15_7,,"en-US,en;q=0.9","<font size=""100%"" weight=bold> + $0.04</font>",,,,,,,,,,,,,,,,,,
