,rt,trial_type,trial_index,time_elapsed,run_id,condition,stimulus,button_pressed,key_press,stage,correct_response,valence,correct,i_acquisition_trial,i_block,negative_tone,positive_tone,positive_key,frequency,valence_match,distance,i_generalization_trial,tone,worker_feedback,total_bonus_amt,responses,cr_is_null,no_pos_key,key_responses
0,7017.0,instructions,0,7018,41,instrumental,,,None,,,,,,,,,,,,,,,,,,True,True,no_key
1,2266.0,html-button-response,1,10297,41,instrumental,"<p>Before we begin this experiment, please make sure your sound is on and un-muted. When you are ready, press the button below!</p>",0.0,None,,,,,,,,,,,,,,,,,,True,True,no_key
2,2254200.0,instructions,2,2264497,41,instrumental,,,None,,,,,,,,,,,,,,,,,,True,True,no_key
3,1713.0,audio-button-response,3,2267230,41,instrumental,sound/500,0.0,None,,,,,,,,,,,,,,,,,,True,True,no_key
4,809.0,audio-button-response,4,2268040,41,instrumental,sound/500,0.0,None,,,,,,,,,,,,,,,,,,True,True,no_key
5,928.0,audio-button-response,5,2268969,41,instrumental,sound/500,0.0,None,,,,,,,,,,,,,,,,,,True,True,no_key
6,3724.0,instructions,6,2272694,41,instrumental,,,None,,,,,,,,,,,,,,,,,,True,True,no_key
7,,html-keyboard-response,7,2274110,41,instrumental,"<div style=""font-size:120%; top:20%""></div>",,None,,,,,,,,,,,,,,,,,,True,True,no_key
8,,audio-keyboard-response,8,2276624,41,instrumental,sound/500,,None,acquisition,anything,neutral,True,0.0,1.0,300.0,700.0,p,500.0,,,,,,,,False,False,no_key
9,,html-keyboard-response,9,2277736,41,instrumental,"<font size=""100%"">neutral! so no change in bonus.</font>",,None,,,,,,,,,,,,,,,,,,True,True,no_key
10,,html-keyboard-response,10,2279245,41,instrumental,"<div style=""font-size:120%; top:20%""></div>",,None,,,,,,,,,,,,,,,,,,True,True,no_key
11,1088.0,audio-keyboard-response,11,2280334,41,instrumental,sound/700,,80.0,acquisition,p,positive,True,1.0,1.0,300.0,700.0,p,700.0,True,,,,,,,False,False,positive
12,,html-keyboard-response,12,2281453,41,instrumental,"<font size=""100%"" weight=bold> correct! + $0.04</font>",,None,,,,,,,,,,,,,,,,,,True,True,no_key
13,,html-keyboard-response,13,2282971,41,instrumental,"<div style=""font-size:120%; top:20%""></div>",,None,,,,,,,,,,,,,,,,,,True,True,no_key
14,811.0,audio-keyboard-response,14,2283781,41,instrumental,sound/500,,81.0,acquisition,anything,neutral,False,2.0,1.0,300.0,700.0,p,500.0,,,,,,,,False,False,negative
15,,html-keyboard-response,15,2284890,41,instrumental,"<font size=""100%"">neutral! so no change in bonus.</font>",,None,,,,,,,,,,,,,,,,,,True,True,no_key
16,,html-keyboard-response,16,2286412,41,instrumental,"<div style=""font-size:120%; top:20%""></div>",,None,,,,,,,,,,,,,,,,,,True,True,no_key
17,1984.0,audio-keyboard-response,17,2288919,41,instrumental,sound/700,,80.0,acquisition,anything,positive,True,,1.0,300.0,700.0,p,700.0,,,,,,,,False,False,positive
18,,html-keyboard-response,18,2290036,41,instrumental,"<font size=""100%"" weight=bold> correct! + $0.04</font>",,None,,,,,,,,,,,,,,,,,,True,True,no_key
19,,html-keyboard-response,19,2291547,41,instrumental,"<div style=""font-size:120%; top:20%""></div>",,None,,,,,,,,,,,,,,,,,,True,True,no_key
20,715.0,audio-keyboard-response,20,2292258,41,instrumental,sound/700,,81.0,acquisition,p,positive,False,3.0,1.0,300.0,700.0,p,700.0,False,,,,,,,False,False,negative
21,,html-keyboard-response,21,2293380,41,instrumental,"<font size=""100%"" weight=bold> incorrect! + $0.00 </font>",,None,,,,,,,,,,,,,,,,,,True,True,no_key
22,,html-keyboard-response,22,2294889,41,instrumental,"<div style=""font-size:120%; top:20%""></div>",,None,,,,,,,,,,,,,,,,,,True,True,no_key
23,736.0,audio-keyboard-response,23,2295620,41,instrumental,sound/300,,81.0,acquisition,q,negative,True,4.0,1.0,300.0,700.0,p,300.0,True,,,,,,,False,False,negative
24,,html-keyboard-response,24,2296742,41,instrumental,"<font size=""100%"" weight=bold> correct! - $0.00 </font>",,None,,,,,,,,,,,,,,,,,,True,True,no_key
25,,html-keyboard-response,25,2298264,41,instrumental,"<div style=""font-size:120%; top:20%""></div>",,None,,,,,,,,,,,,,,,,,,True,True,no_key
26,704.0,audio-keyboard-response,26,2298962,41,instrumental,sound/300,,81.0,acquisition,q,negative,True,5.0,1.0,300.0,700.0,p,300.0,True,,,,,,,False,False,negative
27,,html-keyboard-response,27,2300090,41,instrumental,"<font size=""100%"" weight=bold> correct! - $0.00 </font>",,None,,,,,,,,,,,,,,,,,,True,True,no_key
28,,html-keyboard-response,28,2301596,41,instrumental,"<div style=""font-size:120%; top:20%""></div>",,None,,,,,,,,,,,,,,,,,,True,True,no_key
29,661.0,audio-keyboard-response,29,2302254,41,instrumental,sound/300,,81.0,acquisition,q,negative,True,6.0,1.0,300.0,700.0,p,300.0,True,,,,,,,False,False,negative
30,,html-keyboard-response,30,2303382,41,instrumental,"<font size=""100%"" weight=bold> correct! - $0.00 </font>",,None,,,,,,,,,,,,,,,,,,True,True,no_key
31,,html-keyboard-response,31,2304899,41,instrumental,"<div style=""font-size:120%; top:20%""></div>",,None,,,,,,,,,,,,,,,,,,True,True,no_key
32,747.0,audio-keyboard-response,32,2305659,41,instrumental,sound/500,,80.0,acquisition,anything,neutral,False,7.0,1.0,300.0,700.0,p,500.0,,,,,,,,False,False,positive
33,,html-keyboard-response,33,2306788,41,instrumental,"<font size=""100%"">neutral! so no change in bonus.</font>",,None,,,,,,,,,,,,,,,,,,True,True,no_key
34,,html-keyboard-response,34,2308304,41,instrumental,"<div style=""font-size:120%; top:20%""></div>",,None,,,,,,,,,,,,,,,,,,True,True,no_key
35,192.0,audio-keyboard-response,35,2310814,41,instrumental,sound/300,,80.0,acquisition,anything,negative,False,,1.0,300.0,700.0,p,300.0,,,,,,,,False,False,positive
36,,html-keyboard-response,36,2311927,41,instrumental,"<font size=""100%"" weight=bold> incorrect! - $0.04</font>",,None,,,,,,,,,,,,,,,,,,True,True,no_key
37,,html-keyboard-response,37,2313449,41,instrumental,"<div style=""font-size:120%; top:20%""></div>",,None,,,,,,,,,,,,,,,,,,True,True,no_key
38,736.0,audio-keyboard-response,38,2314177,41,instrumental,sound/700,,80.0,acquisition,p,positive,True,8.0,1.0,300.0,700.0,p,700.0,True,,,,,,,False,False,positive
39,,html-keyboard-response,39,2315289,41,instrumental,"<font size=""100%"" weight=bold> correct! + $0.04</font>",,None,,,,,,,,,,,,,,,,,,True,True,no_key
40,,html-keyboard-response,40,2316803,41,instrumental,"<div style=""font-size:120%; top:20%""></div>",,None,,,,,,,,,,,,,,,,,,True,True,no_key
41,,audio-keyboard-response,41,2319307,41,instrumental,sound/300,,None,acquisition,anything,negative,False,,1.0,300.0,700.0,p,300.0,,,,,,,,False,False,no_key
42,,html-keyboard-response,42,2320416,41,instrumental,"<font size=""100%"" weight=bold> incorrect! - $0.04</font>",,None,,,,,,,,,,,,,,,,,,True,True,no_key
43,,html-keyboard-response,43,2321940,41,instrumental,"<div style=""font-size:120%; top:20%""></div>",,None,,,,,,,,,,,,,,,,,,True,True,no_key
44,725.0,audio-keyboard-response,44,2322652,41,instrumental,sound/500,,81.0,acquisition,anything,neutral,False,9.0,1.0,300.0,700.0,p,500.0,,,,,,,,False,False,negative
45,,html-keyboard-response,45,2323768,41,instrumental,"<font size=""100%"">neutral! so no change in bonus.</font>",,None,,,,,,,,,,,,,,,,,,True,True,no_key
46,,html-keyboard-response,46,2325288,41,instrumental,"<div style=""font-size:120%; top:20%""></div>",,None,,,,,,,,,,,,,,,,,,True,True,no_key
47,693.0,audio-keyboard-response,47,2325979,41,instrumental,sound/300,,81.0,acquisition,q,negative,True,10.0,1.0,300.0,700.0,p,300.0,True,,,,,,,False,False,negative
48,,html-keyboard-response,48,2327101,41,instrumental,"<font size=""100%"" weight=bold> correct! - $0.00 </font>",,None,,,,,,,,,,,,,,,,,,True,True,no_key
49,,html-keyboard-response,49,2328617,41,instrumental,"<div style=""font-size:120%; top:20%""></div>",,None,,,,,,,,,,,,,,,,,,True,True,no_key
50,640.0,audio-keyboard-response,50,2329260,41,instrumental,sound/500,,80.0,acquisition,anything,neutral,False,11.0,1.0,300.0,700.0,p,500.0,,,,,,,,False,False,positive
51,,html-keyboard-response,51,2330384,41,instrumental,"<font size=""100%"">neutral! so no change in bonus.</font>",,None,,,,,,,,,,,,,,,,,,True,True,no_key
52,,html-keyboard-response,52,2331892,41,instrumental,"<div style=""font-size:120%; top:20%""></div>",,None,,,,,,,,,,,,,,,,,,True,True,no_key
53,437.0,audio-keyboard-response,53,2332342,41,instrumental,sound/700,,80.0,acquisition,p,positive,True,12.0,1.0,300.0,700.0,p,700.0,True,,,,,,,False,False,positive
54,,html-keyboard-response,54,2333469,41,instrumental,"<font size=""100%"" weight=bold> correct! + $0.04</font>",,None,,,,,,,,,,,,,,,,,,True,True,no_key
55,,html-keyboard-response,55,2334976,41,instrumental,"<div style=""font-size:120%; top:20%""></div>",,None,,,,,,,,,,,,,,,,,,True,True,no_key
56,789.0,audio-keyboard-response,56,2335769,41,instrumental,sound/500,,81.0,acquisition,anything,neutral,False,13.0,1.0,300.0,700.0,p,500.0,,,,,,,,False,False,negative
57,,html-keyboard-response,57,2336888,41,instrumental,"<font size=""100%"">neutral! so no change in bonus.</font>",,None,,,,,,,,,,,,,,,,,,True,True,no_key
58,,html-keyboard-response,58,2338394,41,instrumental,"<div style=""font-size:120%; top:20%""></div>",,None,,,,,,,,,,,,,,,,,,True,True,no_key
59,,audio-keyboard-response,59,2340899,41,instrumental,sound/700,,None,acquisition,anything,positive,True,,1.0,300.0,700.0,p,700.0,,,,,,,,False,False,no_key
60,,html-keyboard-response,60,2342020,41,instrumental,"<font size=""100%"" weight=bold> correct! + $0.04</font>",,None,,,,,,,,,,,,,,,,,,True,True,no_key
61,,html-keyboard-response,61,2343535,41,instrumental,"<div style=""font-size:120%; top:20%""></div>",,None,,,,,,,,,,,,,,,,,,True,True,no_key
62,779.0,audio-keyboard-response,62,2344320,41,instrumental,sound/300,,81.0,acquisition,q,negative,True,14.0,1.0,300.0,700.0,p,300.0,True,,,,,,,False,False,negative
63,,html-keyboard-response,63,2345439,41,instrumental,"<font size=""100%"" weight=bold> correct! - $0.00 </font>",,None,,,,,,,,,,,,,,,,,,True,True,no_key
64,,html-keyboard-response,64,2346952,41,instrumental,"<div style=""font-size:120%; top:20%""></div>",,None,,,,,,,,,,,,,,,,,,True,True,no_key
65,491.0,audio-keyboard-response,65,2347447,41,instrumental,sound/700,,80.0,acquisition,p,positive,True,15.0,1.0,300.0,700.0,p,700.0,True,,,,,,,False,False,positive
66,,html-keyboard-response,66,2348572,41,instrumental,"<font size=""100%"" weight=bold> correct! + $0.04</font>",,None,,,,,,,,,,,,,,,,,,True,True,no_key
67,,html-keyboard-response,67,2350079,41,instrumental,"<div style=""font-size:120%; top:20%""></div>",,None,,,,,,,,,,,,,,,,,,True,True,no_key
68,555.0,audio-keyboard-response,68,2350624,41,instrumental,sound/300,,81.0,acquisition,q,negative,True,16.0,1.0,300.0,700.0,p,300.0,True,,,,,,,False,False,negative
69,,html-keyboard-response,69,2351755,41,instrumental,"<font size=""100%"" weight=bold> correct! - $0.00 </font>",,None,,,,,,,,,,,,,,,,,,True,True,no_key
70,,html-keyboard-response,70,2353278,41,instrumental,"<div style=""font-size:120%; top:20%""></div>",,None,,,,,,,,,,,,,,,,,,True,True,no_key
71,661.0,audio-keyboard-response,71,2353935,41,instrumental,sound/700,,80.0,acquisition,p,positive,True,17.0,1.0,300.0,700.0,p,700.0,True,,,,,,,False,False,positive
72,,html-keyboard-response,72,2355047,41,instrumental,"<font size=""100%"" weight=bold> correct! + $0.04</font>",,None,,,,,,,,,,,,,,,,,,True,True,no_key
73,304397.0,html-keyboard-response,73,2659952,41,instrumental,The total bonus amount of bonus you earned in this last period was $0.20.<br> Press any key to continue to the next step.,,32.0,,,,,,,,,,,,,,,,,,True,True,neutral
74,181306.0,instructions,74,2841259,41,instrumental,,,None,,,,,,,,,,,,,,,,,,True,True,no_key
75,,html-keyboard-response,75,2842162,41,instrumental,,,None,,,,,,,,,,,,,,,,,,True,True,no_key
76,1152.0,audio-keyboard-response,76,2843334,41,instrumental,sound/700,,80.0,generalization,p,positive,True,,1.0,300.0,700.0,p,,True,0.0,0.0,,,,,False,False,positive
77,,html-keyboard-response,77,2844347,41,instrumental,,,None,,,,,,,,,,,,,,,,,,True,True,no_key
78,,html-keyboard-response,78,2844857,41,instrumental,,,None,,,,,,,,,,,,,,,,,,True,True,no_key
79,832.0,audio-keyboard-response,79,2845689,41,instrumental,sound/700,,80.0,generalization,p,positive,True,,1.0,300.0,700.0,p,,True,0.0,1.0,,,,,False,False,positive
80,,html-keyboard-response,80,2846701,41,instrumental,,,None,,,,,,,,,,,,,,,,,,True,True,no_key
81,,html-keyboard-response,81,2847208,41,instrumental,,,None,,,,,,,,,,,,,,,,,,True,True,no_key
82,597.0,audio-keyboard-response,82,2847803,41,instrumental,sound/700,,80.0,generalization,p,positive,True,,1.0,300.0,700.0,p,,True,0.0,2.0,,,,,False,False,positive
83,,html-keyboard-response,83,2848812,41,instrumental,,,None,,,,,,,,,,,,,,,,,,True,True,no_key
84,,html-keyboard-response,84,2849320,41,instrumental,,,None,,,,,,,,,,,,,,,,,,True,True,no_key
85,512.0,audio-keyboard-response,85,2849840,41,instrumental,sound/500,,81.0,generalization,space,control,False,,1.0,300.0,700.0,p,,,,3.0,,,,,False,False,negative
86,,html-keyboard-response,86,2850851,41,instrumental,,,None,,,,,,,,,,,,,,,,,,True,True,no_key
87,,html-keyboard-response,87,2851360,41,instrumental,,,None,,,,,,,,,,,,,,,,,,True,True,no_key
88,491.0,audio-keyboard-response,88,2851858,41,instrumental,sound/520,,81.0,generalization,space,control,False,,1.0,300.0,700.0,p,,,,4.0,,,,,False,False,negative
89,,html-keyboard-response,89,2852871,41,instrumental,,,None,,,,,,,,,,,,,,,,,,True,True,no_key
90,,html-keyboard-response,90,2853381,41,instrumental,,,None,,,,,,,,,,,,,,,,,,True,True,no_key
91,523.0,audio-keyboard-response,91,2853914,41,instrumental,sound/300,,81.0,generalization,q,negative,True,,1.0,300.0,700.0,p,,True,0.0,5.0,,,,,False,False,negative
92,,html-keyboard-response,92,2854924,41,instrumental,,,None,,,,,,,,,,,,,,,,,,True,True,no_key
93,,html-keyboard-response,93,2855438,41,instrumental,,,None,,,,,,,,,,,,,,,,,,True,True,no_key
94,1003.0,audio-keyboard-response,94,2856443,41,instrumental,sound/600,,80.0,generalization,space,positive,False,,1.0,300.0,700.0,p,,True,-100.0,6.0,600.0,,,,False,False,positive
95,,html-keyboard-response,95,2857451,41,instrumental,,,None,,,,,,,,,,,,,,,,,,True,True,no_key
96,,html-keyboard-response,96,2857957,41,instrumental,,,None,,,,,,,,,,,,,,,,,,True,True,no_key
97,512.0,audio-keyboard-response,97,2858472,41,instrumental,sound/300,,81.0,generalization,q,negative,True,,1.0,300.0,700.0,p,,True,0.0,7.0,,,,,False,False,negative
98,,html-keyboard-response,98,2859490,41,instrumental,,,None,,,,,,,,,,,,,,,,,,True,True,no_key
99,,html-keyboard-response,99,2859996,41,instrumental,,,None,,,,,,,,,,,,,,,,,,True,True,no_key
100,736.0,audio-keyboard-response,100,2860726,41,instrumental,sound/680,,80.0,generalization,space,positive,False,,1.0,300.0,700.0,p,,True,-20.0,8.0,680.0,,,,False,False,positive
101,,html-keyboard-response,101,2861737,41,instrumental,,,None,,,,,,,,,,,,,,,,,,True,True,no_key
102,,html-keyboard-response,102,2862250,41,instrumental,,,None,,,,,,,,,,,,,,,,,,True,True,no_key
103,565.0,audio-keyboard-response,103,2862810,41,instrumental,sound/240,,81.0,generalization,space,negative,False,,1.0,300.0,700.0,p,,True,-60.0,9.0,240.0,,,,False,False,negative
104,,html-keyboard-response,104,2863818,41,instrumental,,,None,,,,,,,,,,,,,,,,,,True,True,no_key
105,,html-keyboard-response,105,2864325,41,instrumental,,,None,,,,,,,,,,,,,,,,,,True,True,no_key
106,939.0,audio-keyboard-response,106,2865270,41,instrumental,sound/320,,81.0,generalization,space,negative,False,,1.0,300.0,700.0,p,,True,20.0,10.0,320.0,,,,False,False,negative
107,,html-keyboard-response,107,2866287,41,instrumental,,,None,,,,,,,,,,,,,,,,,,True,True,no_key
108,,html-keyboard-response,108,2866795,41,instrumental,,,None,,,,,,,,,,,,,,,,,,True,True,no_key
109,640.0,audio-keyboard-response,109,2867438,41,instrumental,sound/300,,32.0,generalization,q,negative,False,,1.0,300.0,700.0,p,,False,0.0,11.0,,,,,False,False,neutral
110,,html-keyboard-response,110,2868453,41,instrumental,,,None,,,,,,,,,,,,,,,,,,True,True,no_key
111,,html-keyboard-response,111,2868962,41,instrumental,,,None,,,,,,,,,,,,,,,,,,True,True,no_key
112,587.0,audio-keyboard-response,112,2869552,41,instrumental,sound/280,,81.0,generalization,space,negative,False,,1.0,300.0,700.0,p,,True,-20.0,12.0,280.0,,,,False,False,negative
113,,html-keyboard-response,113,2870558,41,instrumental,,,None,,,,,,,,,,,,,,,,,,True,True,no_key
114,,html-keyboard-response,114,2871065,41,instrumental,,,None,,,,,,,,,,,,,,,,,,True,True,no_key
115,651.0,audio-keyboard-response,115,2871714,41,instrumental,sound/720,,80.0,generalization,space,positive,False,,1.0,300.0,700.0,p,,True,20.0,13.0,720.0,,,,False,False,positive
116,,html-keyboard-response,116,2872721,41,instrumental,,,None,,,,,,,,,,,,,,,,,,True,True,no_key
117,,html-keyboard-response,117,2873228,41,instrumental,,,None,,,,,,,,,,,,,,,,,,True,True,no_key
118,533.0,audio-keyboard-response,118,2873773,41,instrumental,sound/295,,81.0,generalization,space,negative,False,,1.0,300.0,700.0,p,,True,-5.0,14.0,295.0,,,,False,False,negative
119,,html-keyboard-response,119,2874783,41,instrumental,,,None,,,,,,,,,,,,,,,,,,True,True,no_key
120,,html-keyboard-response,120,2875288,41,instrumental,,,None,,,,,,,,,,,,,,,,,,True,True,no_key
121,629.0,audio-keyboard-response,121,2875919,41,instrumental,sound/700,,80.0,generalization,p,positive,True,,1.0,300.0,700.0,p,,True,0.0,15.0,,,,,False,False,positive
122,,html-keyboard-response,122,2876929,41,instrumental,,,None,,,,,,,,,,,,,,,,,,True,True,no_key
123,,html-keyboard-response,123,2877435,41,instrumental,,,None,,,,,,,,,,,,,,,,,,True,True,no_key
124,544.0,audio-keyboard-response,124,2877973,41,instrumental,sound/640,,80.0,generalization,space,positive,False,,1.0,300.0,700.0,p,,True,-60.0,16.0,640.0,,,,False,False,positive
125,,html-keyboard-response,125,2878987,41,instrumental,,,None,,,,,,,,,,,,,,,,,,True,True,no_key
126,,html-keyboard-response,126,2879495,41,instrumental,,,None,,,,,,,,,,,,,,,,,,True,True,no_key
127,523.0,audio-keyboard-response,127,2880019,41,instrumental,sound/200,,81.0,generalization,space,negative,False,,1.0,300.0,700.0,p,,True,-100.0,17.0,200.0,,,,False,False,negative
128,,html-keyboard-response,128,2881026,41,instrumental,,,None,,,,,,,,,,,,,,,,,,True,True,no_key
129,,html-keyboard-response,129,2881546,41,instrumental,,,None,,,,,,,,,,,,,,,,,,True,True,no_key
130,597.0,audio-keyboard-response,130,2882149,41,instrumental,sound/920,,80.0,generalization,space,control,False,,1.0,300.0,700.0,p,,,,18.0,,,,,False,False,positive
131,,html-keyboard-response,131,2883159,41,instrumental,,,None,,,,,,,,,,,,,,,,,,True,True,no_key
132,,html-keyboard-response,132,2883665,41,instrumental,,,None,,,,,,,,,,,,,,,,,,True,True,no_key
133,757.0,audio-keyboard-response,133,2884418,41,instrumental,sound/695,,80.0,generalization,space,positive,False,,1.0,300.0,700.0,p,,True,-5.0,19.0,695.0,,,,False,False,positive
134,,html-keyboard-response,134,2885429,41,instrumental,,,None,,,,,,,,,,,,,,,,,,True,True,no_key
135,,html-keyboard-response,135,2885935,41,instrumental,,,None,,,,,,,,,,,,,,,,,,True,True,no_key
136,544.0,audio-keyboard-response,136,2886481,41,instrumental,sound/705,,80.0,generalization,space,positive,False,,1.0,300.0,700.0,p,,True,5.0,20.0,705.0,,,,False,False,positive
137,,html-keyboard-response,137,2887490,41,instrumental,,,None,,,,,,,,,,,,,,,,,,True,True,no_key
138,,html-keyboard-response,138,2887996,41,instrumental,,,None,,,,,,,,,,,,,,,,,,True,True,no_key
139,608.0,audio-keyboard-response,139,2888604,41,instrumental,sound/480,,81.0,generalization,space,control,False,,1.0,300.0,700.0,p,,,,21.0,,,,,False,False,negative
140,,html-keyboard-response,140,2889612,41,instrumental,,,None,,,,,,,,,,,,,,,,,,True,True,no_key
141,,html-keyboard-response,141,2890118,41,instrumental,,,None,,,,,,,,,,,,,,,,,,True,True,no_key
142,597.0,audio-keyboard-response,142,2890723,41,instrumental,sound/760,,80.0,generalization,space,positive,False,,1.0,300.0,700.0,p,,True,60.0,22.0,760.0,,,,False,False,positive
143,,html-keyboard-response,143,2891740,41,instrumental,,,None,,,,,,,,,,,,,,,,,,True,True,no_key
144,,html-keyboard-response,144,2892245,41,instrumental,,,None,,,,,,,,,,,,,,,,,,True,True,no_key
145,875.0,audio-keyboard-response,145,2893126,41,instrumental,sound/400,,32.0,generalization,space,negative,True,,1.0,300.0,700.0,p,,False,100.0,23.0,400.0,,,,False,False,neutral
146,,html-keyboard-response,146,2894134,41,instrumental,,,None,,,,,,,,,,,,,,,,,,True,True,no_key
147,,html-keyboard-response,147,2894642,41,instrumental,,,None,,,,,,,,,,,,,,,,,,True,True,no_key
148,683.0,audio-keyboard-response,148,2895342,41,instrumental,sound/880,,80.0,generalization,space,control,False,,1.0,300.0,700.0,p,,,,24.0,,,,,False,False,positive
149,,html-keyboard-response,149,2896346,41,instrumental,,,None,,,,,,,,,,,,,,,,,,True,True,no_key
150,,html-keyboard-response,150,2896852,41,instrumental,,,None,,,,,,,,,,,,,,,,,,True,True,no_key
151,544.0,audio-keyboard-response,151,2897400,41,instrumental,sound/900,,80.0,generalization,space,control,False,,1.0,300.0,700.0,p,,,,25.0,,,,,False,False,positive
152,,html-keyboard-response,152,2898406,41,instrumental,,,None,,,,,,,,,,,,,,,,,,True,True,no_key
153,,html-keyboard-response,153,2898911,41,instrumental,,,None,,,,,,,,,,,,,,,,,,True,True,no_key
154,512.0,audio-keyboard-response,154,2899420,41,instrumental,sound/360,,81.0,generalization,space,negative,False,,1.0,300.0,700.0,p,,True,60.0,26.0,360.0,,,,False,False,negative
155,,html-keyboard-response,155,2900435,41,instrumental,,,None,,,,,,,,,,,,,,,,,,True,True,no_key
156,,html-keyboard-response,156,2900941,41,instrumental,,,None,,,,,,,,,,,,,,,,,,True,True,no_key
157,597.0,audio-keyboard-response,157,2901527,41,instrumental,sound/305,,81.0,generalization,space,negative,False,,1.0,300.0,700.0,p,,True,5.0,27.0,305.0,,,,False,False,negative
158,,html-keyboard-response,158,2902539,41,instrumental,,,None,,,,,,,,,,,,,,,,,,True,True,no_key
159,,html-keyboard-response,159,2903044,41,instrumental,,,None,,,,,,,,,,,,,,,,,,True,True,no_key
160,469.0,audio-keyboard-response,160,2903520,41,instrumental,sound/800,,80.0,generalization,space,positive,False,,1.0,300.0,700.0,p,,True,100.0,28.0,800.0,,,,False,False,positive
161,,html-keyboard-response,161,2904523,41,instrumental,,,None,,,,,,,,,,,,,,,,,,True,True,no_key
162,,html-keyboard-response,162,2905029,41,instrumental,,,None,,,,,,,,,,,,,,,,,,True,True,no_key
163,512.0,audio-keyboard-response,163,2905542,41,instrumental,sound/300,,81.0,generalization,q,negative,True,,1.0,300.0,700.0,p,,True,0.0,29.0,,,,,False,False,negative
164,,html-keyboard-response,164,2906549,41,instrumental,,,None,,,,,,,,,,,,,,,,,,True,True,no_key
165,178956.0,html-keyboard-response,165,3085508,41,instrumental,bonus earned during this period: $0.32<br><br>Press any key to continue.,,18.0,,,,,,,,,,,,,,,,,,True,True,other_key
166,19362.0,instructions,166,3104872,41,instrumental,,,None,,,,,,,,,,,,,,,,,,True,True,no_key
167,,html-keyboard-response,167,3106277,41,instrumental,"<div style=""font-size:120%; top:20%""></div>",,None,,,,,,,,,,,,,,,,,,True,True,no_key
168,1376.0,audio-keyboard-response,168,3107679,41,instrumental,sound/500,,81.0,acquisition,anything,neutral,False,18.0,2.0,300.0,700.0,p,500.0,,,,,,,,False,False,negative
169,,html-keyboard-response,169,3108800,41,instrumental,"<font size=""100%"">neutral! so no change in bonus.</font>",,None,,,,,,,,,,,,,,,,,,True,True,no_key
170,,html-keyboard-response,170,3110320,41,instrumental,"<div style=""font-size:120%; top:20%""></div>",,None,,,,,,,,,,,,,,,,,,True,True,no_key
171,661.0,audio-keyboard-response,171,3110990,41,instrumental,sound/500,,81.0,acquisition,anything,neutral,False,19.0,2.0,300.0,700.0,p,500.0,,,,,,,,False,False,negative
172,,html-keyboard-response,172,3112116,41,instrumental,"<font size=""100%"">neutral! so no change in bonus.</font>",,None,,,,,,,,,,,,,,,,,,True,True,no_key
173,,html-keyboard-response,173,3113634,41,instrumental,"<div style=""font-size:120%; top:20%""></div>",,None,,,,,,,,,,,,,,,,,,True,True,no_key
174,469.0,audio-keyboard-response,174,3114108,41,instrumental,sound/500,,81.0,acquisition,anything,neutral,False,20.0,2.0,300.0,700.0,p,500.0,,,,,,,,False,False,negative
175,,html-keyboard-response,175,3115222,41,instrumental,"<font size=""100%"">neutral! so no change in bonus.</font>",,None,,,,,,,,,,,,,,,,,,True,True,no_key
176,,html-keyboard-response,176,3116742,41,instrumental,"<div style=""font-size:120%; top:20%""></div>",,None,,,,,,,,,,,,,,,,,,True,True,no_key
177,,audio-keyboard-response,177,3119262,41,instrumental,sound/700,,None,acquisition,anything,positive,True,,2.0,300.0,700.0,p,700.0,,,,,,,,False,False,no_key
178,,html-keyboard-response,178,3120371,41,instrumental,"<font size=""100%"" weight=bold> correct! + $0.04</font>",,None,,,,,,,,,,,,,,,,,,True,True,no_key
179,,html-keyboard-response,179,3121894,41,instrumental,"<div style=""font-size:120%; top:20%""></div>",,None,,,,,,,,,,,,,,,,,,True,True,no_key
180,,audio-keyboard-response,180,3124401,41,instrumental,sound/700,,None,acquisition,p,positive,False,21.0,2.0,300.0,700.0,p,700.0,,,,,,,,False,False,no_key
181,,html-keyboard-response,181,3125522,41,instrumental,"<font size=""100%"" weight=bold> incorrect! + $0.00 </font>",,None,,,,,,,,,,,,,,,,,,True,True,no_key
182,,html-keyboard-response,182,3127049,41,instrumental,"<div style=""font-size:120%; top:20%""></div>",,None,,,,,,,,,,,,,,,,,,True,True,no_key
183,651.0,audio-keyboard-response,183,3127695,41,instrumental,sound/300,,81.0,acquisition,q,negative,True,22.0,2.0,300.0,700.0,p,300.0,True,,,,,,,False,False,negative
184,,html-keyboard-response,184,3128817,41,instrumental,"<font size=""100%"" weight=bold> correct! - $0.00 </font>",,None,,,,,,,,,,,,,,,,,,True,True,no_key
185,,html-keyboard-response,185,3130337,41,instrumental,"<div style=""font-size:120%; top:20%""></div>",,None,,,,,,,,,,,,,,,,,,True,True,no_key
186,619.0,audio-keyboard-response,186,3130948,41,instrumental,sound/300,,81.0,acquisition,q,negative,True,23.0,2.0,300.0,700.0,p,300.0,True,,,,,,,False,False,negative
187,,html-keyboard-response,187,3132063,41,instrumental,"<font size=""100%"" weight=bold> correct! - $0.00 </font>",,None,,,,,,,,,,,,,,,,,,True,True,no_key
188,,html-keyboard-response,188,3133569,41,instrumental,"<div style=""font-size:120%; top:20%""></div>",,None,,,,,,,,,,,,,,,,,,True,True,no_key
189,,audio-keyboard-response,189,3136076,41,instrumental,sound/300,,None,acquisition,anything,negative,False,,2.0,300.0,700.0,p,300.0,,,,,,,,False,False,no_key
190,,html-keyboard-response,190,3137198,41,instrumental,"<font size=""100%"" weight=bold> incorrect! - $0.04</font>",,None,,,,,,,,,,,,,,,,,,True,True,no_key
191,,html-keyboard-response,191,3138734,41,instrumental,"<div style=""font-size:120%; top:20%""></div>",,None,,,,,,,,,,,,,,,,,,True,True,no_key
192,544.0,audio-keyboard-response,192,3139277,41,instrumental,sound/700,,80.0,acquisition,p,positive,True,24.0,2.0,300.0,700.0,p,700.0,True,,,,,,,False,False,positive
193,,html-keyboard-response,193,3140392,41,instrumental,"<font size=""100%"" weight=bold> correct! + $0.04</font>",,None,,,,,,,,,,,,,,,,,,True,True,no_key
194,,html-keyboard-response,194,3141910,41,instrumental,"<div style=""font-size:120%; top:20%""></div>",,None,,,,,,,,,,,,,,,,,,True,True,no_key
195,427.0,audio-keyboard-response,195,3142352,41,instrumental,sound/300,,81.0,acquisition,q,negative,True,25.0,2.0,300.0,700.0,p,300.0,True,,,,,,,False,False,negative
196,,html-keyboard-response,196,3143461,41,instrumental,"<font size=""100%"" weight=bold> correct! - $0.00 </font>",,None,,,,,,,,,,,,,,,,,,True,True,no_key
197,,html-keyboard-response,197,3144982,41,instrumental,"<div style=""font-size:120%; top:20%""></div>",,None,,,,,,,,,,,,,,,,,,True,True,no_key
198,459.0,audio-keyboard-response,198,3145452,41,instrumental,sound/700,,80.0,acquisition,p,positive,True,26.0,2.0,300.0,700.0,p,700.0,True,,,,,,,False,False,positive
199,,html-keyboard-response,199,3146562,41,instrumental,"<font size=""100%"" weight=bold> correct! + $0.04</font>",,None,,,,,,,,,,,,,,,,,,True,True,no_key
200,,html-keyboard-response,200,3148071,41,instrumental,"<div style=""font-size:120%; top:20%""></div>",,None,,,,,,,,,,,,,,,,,,True,True,no_key
201,416.0,audio-keyboard-response,201,3148496,41,instrumental,sound/700,,80.0,acquisition,p,positive,True,27.0,2.0,300.0,700.0,p,700.0,True,,,,,,,False,False,positive
202,,html-keyboard-response,202,3149611,41,instrumental,"<font size=""100%"" weight=bold> correct! + $0.04</font>",,None,,,,,,,,,,,,,,,,,,True,True,no_key
203,,html-keyboard-response,203,3151130,41,instrumental,"<div style=""font-size:120%; top:20%""></div>",,None,,,,,,,,,,,,,,,,,,True,True,no_key
204,672.0,audio-keyboard-response,204,3151796,41,instrumental,sound/500,,80.0,acquisition,anything,neutral,False,28.0,2.0,300.0,700.0,p,500.0,,,,,,,,False,False,positive
205,,html-keyboard-response,205,3152917,41,instrumental,"<font size=""100%"">neutral! so no change in bonus.</font>",,None,,,,,,,,,,,,,,,,,,True,True,no_key
206,,html-keyboard-response,206,3154427,41,instrumental,"<div style=""font-size:120%; top:20%""></div>",,None,,,,,,,,,,,,,,,,,,True,True,no_key
207,448.0,audio-keyboard-response,207,3154880,41,instrumental,sound/700,,80.0,acquisition,p,positive,True,29.0,2.0,300.0,700.0,p,700.0,True,,,,,,,False,False,positive
208,,html-keyboard-response,208,3155997,41,instrumental,"<font size=""100%"" weight=bold> correct! + $0.04</font>",,None,,,,,,,,,,,,,,,,,,True,True,no_key
209,,html-keyboard-response,209,3157526,41,instrumental,"<div style=""font-size:120%; top:20%""></div>",,None,,,,,,,,,,,,,,,,,,True,True,no_key
210,448.0,audio-keyboard-response,210,3157973,41,instrumental,sound/700,,80.0,acquisition,p,positive,True,30.0,2.0,300.0,700.0,p,700.0,True,,,,,,,False,False,positive
211,,html-keyboard-response,211,3159093,41,instrumental,"<font size=""100%"" weight=bold> correct! + $0.04</font>",,None,,,,,,,,,,,,,,,,,,True,True,no_key
212,,html-keyboard-response,212,3160617,41,instrumental,"<div style=""font-size:120%; top:20%""></div>",,None,,,,,,,,,,,,,,,,,,True,True,no_key
213,448.0,audio-keyboard-response,213,3161071,41,instrumental,sound/500,,81.0,acquisition,anything,neutral,False,31.0,2.0,300.0,700.0,p,500.0,,,,,,,,False,False,negative
214,,html-keyboard-response,214,3162184,41,instrumental,"<font size=""100%"">neutral! so no change in bonus.</font>",,None,,,,,,,,,,,,,,,,,,True,True,no_key
215,,html-keyboard-response,215,3163705,41,instrumental,"<div style=""font-size:120%; top:20%""></div>",,None,,,,,,,,,,,,,,,,,,True,True,no_key
216,907.0,audio-keyboard-response,216,3166217,41,instrumental,sound/700,,80.0,acquisition,anything,positive,True,,2.0,300.0,700.0,p,700.0,,,,,,,,False,False,positive
217,,html-keyboard-response,217,3167337,41,instrumental,"<font size=""100%"" weight=bold> correct! + $0.04</font>",,None,,,,,,,,,,,,,,,,,,True,True,no_key
218,,html-keyboard-response,218,3168844,41,instrumental,"<div style=""font-size:120%; top:20%""></div>",,None,,,,,,,,,,,,,,,,,,True,True,no_key
219,661.0,audio-keyboard-response,219,3169508,41,instrumental,sound/300,,81.0,acquisition,q,negative,True,32.0,2.0,300.0,700.0,p,300.0,True,,,,,,,False,False,negative
220,,html-keyboard-response,220,3170637,41,instrumental,"<font size=""100%"" weight=bold> correct! - $0.00 </font>",,None,,,,,,,,,,,,,,,,,,True,True,no_key
221,,html-keyboard-response,221,3172157,41,instrumental,"<div style=""font-size:120%; top:20%""></div>",,None,,,,,,,,,,,,,,,,,,True,True,no_key
222,523.0,audio-keyboard-response,222,3174665,41,instrumental,sound/300,,81.0,acquisition,anything,negative,False,,2.0,300.0,700.0,p,300.0,,,,,,,,False,False,negative
223,,html-keyboard-response,223,3175778,41,instrumental,"<font size=""100%"" weight=bold> incorrect! - $0.04</font>",,None,,,,,,,,,,,,,,,,,,True,True,no_key
224,,html-keyboard-response,224,3177296,41,instrumental,"<div style=""font-size:120%; top:20%""></div>",,None,,,,,,,,,,,,,,,,,,True,True,no_key
225,768.0,audio-keyboard-response,225,3178072,41,instrumental,sound/300,,81.0,acquisition,q,negative,True,33.0,2.0,300.0,700.0,p,300.0,True,,,,,,,False,False,negative
226,,html-keyboard-response,226,3179197,41,instrumental,"<font size=""100%"" weight=bold> correct! - $0.00 </font>",,None,,,,,,,,,,,,,,,,,,True,True,no_key
227,,html-keyboard-response,227,3180718,41,instrumental,"<div style=""font-size:120%; top:20%""></div>",,None,,,,,,,,,,,,,,,,,,True,True,no_key
228,416.0,audio-keyboard-response,228,3181136,41,instrumental,sound/500,,80.0,acquisition,anything,neutral,False,34.0,2.0,300.0,700.0,p,500.0,,,,,,,,False,False,positive
229,,html-keyboard-response,229,3182256,41,instrumental,"<font size=""100%"">neutral! so no change in bonus.</font>",,None,,,,,,,,,,,,,,,,,,True,True,no_key
230,,html-keyboard-response,230,3183789,41,instrumental,"<div style=""font-size:120%; top:20%""></div>",,None,,,,,,,,,,,,,,,,,,True,True,no_key
231,651.0,audio-keyboard-response,231,3184442,41,instrumental,sound/300,,81.0,acquisition,q,negative,True,35.0,2.0,300.0,700.0,p,300.0,True,,,,,,,False,False,negative
232,,html-keyboard-response,232,3185575,41,instrumental,"<font size=""100%"" weight=bold> correct! - $0.00 </font>",,None,,,,,,,,,,,,,,,,,,True,True,no_key
233,35415.0,html-keyboard-response,233,3221500,41,instrumental,The total bonus amount of bonus you earned in this last period was $0.20.<br> Press any key to continue to the next step.,,32.0,,,,,,,,,,,,,,,,,,True,True,neutral
234,1209.0,instructions,234,3222712,41,instrumental,,,None,,,,,,,,,,,,,,,,,,True,True,no_key
235,,html-keyboard-response,235,3223619,41,instrumental,,,None,,,,,,,,,,,,,,,,,,True,True,no_key
236,501.0,audio-keyboard-response,236,3224152,41,instrumental,sound/700,,80.0,generalization,p,positive,True,,2.0,300.0,700.0,p,,True,0.0,30.0,,,,,False,False,positive
237,,html-keyboard-response,237,3225157,41,instrumental,,,None,,,,,,,,,,,,,,,,,,True,True,no_key
238,,html-keyboard-response,238,3225670,41,instrumental,,,None,,,,,,,,,,,,,,,,,,True,True,no_key
239,821.0,audio-keyboard-response,239,3226491,41,instrumental,sound/600,,80.0,generalization,space,positive,False,,2.0,300.0,700.0,p,,True,-100.0,31.0,600.0,,,,False,False,positive
240,,html-keyboard-response,240,3227495,41,instrumental,,,None,,,,,,,,,,,,,,,,,,True,True,no_key
241,,html-keyboard-response,241,3228018,41,instrumental,,,None,,,,,,,,,,,,,,,,,,True,True,no_key
242,469.0,audio-keyboard-response,242,3228494,41,instrumental,sound/760,,80.0,generalization,space,positive,False,,2.0,300.0,700.0,p,,True,60.0,32.0,760.0,,,,False,False,positive
243,,html-keyboard-response,243,3229513,41,instrumental,,,None,,,,,,,,,,,,,,,,,,True,True,no_key
244,,html-keyboard-response,244,3230017,41,instrumental,,,None,,,,,,,,,,,,,,,,,,True,True,no_key
245,544.0,audio-keyboard-response,245,3230575,41,instrumental,sound/320,,81.0,generalization,space,negative,False,,2.0,300.0,700.0,p,,True,20.0,33.0,320.0,,,,False,False,negative
246,,html-keyboard-response,246,3231589,41,instrumental,,,None,,,,,,,,,,,,,,,,,,True,True,no_key
247,,html-keyboard-response,247,3232097,41,instrumental,,,None,,,,,,,,,,,,,,,,,,True,True,no_key
248,597.0,audio-keyboard-response,248,3232699,41,instrumental,sound/900,,80.0,generalization,space,control,False,,2.0,300.0,700.0,p,,,,34.0,,,,,False,False,positive
249,,html-keyboard-response,249,3233703,41,instrumental,,,None,,,,,,,,,,,,,,,,,,True,True,no_key
250,,html-keyboard-response,250,3234210,41,instrumental,,,None,,,,,,,,,,,,,,,,,,True,True,no_key
251,459.0,audio-keyboard-response,251,3234667,41,instrumental,sound/880,,80.0,generalization,space,control,False,,2.0,300.0,700.0,p,,,,35.0,,,,,False,False,positive
252,,html-keyboard-response,252,3235673,41,instrumental,,,None,,,,,,,,,,,,,,,,,,True,True,no_key
253,,html-keyboard-response,253,3236192,41,instrumental,,,None,,,,,,,,,,,,,,,,,,True,True,no_key
254,491.0,audio-keyboard-response,254,3236681,41,instrumental,sound/680,,81.0,generalization,space,positive,False,,2.0,300.0,700.0,p,,False,-20.0,36.0,680.0,,,,False,False,negative
255,,html-keyboard-response,255,3237686,41,instrumental,,,None,,,,,,,,,,,,,,,,,,True,True,no_key
256,,html-keyboard-response,256,3238193,41,instrumental,,,None,,,,,,,,,,,,,,,,,,True,True,no_key
257,512.0,audio-keyboard-response,257,3238708,41,instrumental,sound/300,,81.0,generalization,q,negative,True,,2.0,300.0,700.0,p,,True,0.0,37.0,,,,,False,False,negative
258,,html-keyboard-response,258,3239721,41,instrumental,,,None,,,,,,,,,,,,,,,,,,True,True,no_key
259,,html-keyboard-response,259,3240227,41,instrumental,,,None,,,,,,,,,,,,,,,,,,True,True,no_key
260,491.0,audio-keyboard-response,260,3240721,41,instrumental,sound/700,,81.0,generalization,p,positive,False,,2.0,300.0,700.0,p,,False,0.0,38.0,,,,,False,False,negative
261,,html-keyboard-response,261,3241731,41,instrumental,,,None,,,,,,,,,,,,,,,,,,True,True,no_key
262,,html-keyboard-response,262,3242238,41,instrumental,,,None,,,,,,,,,,,,,,,,,,True,True,no_key
263,587.0,audio-keyboard-response,263,3242826,41,instrumental,sound/640,,81.0,generalization,space,positive,False,,2.0,300.0,700.0,p,,False,-60.0,39.0,640.0,,,,False,False,negative
264,,html-keyboard-response,264,3243837,41,instrumental,,,None,,,,,,,,,,,,,,,,,,True,True,no_key
265,,html-keyboard-response,265,3244346,41,instrumental,,,None,,,,,,,,,,,,,,,,,,True,True,no_key
266,491.0,audio-keyboard-response,266,3244844,41,instrumental,sound/920,,80.0,generalization,space,control,False,,2.0,300.0,700.0,p,,,,40.0,,,,,False,False,positive
267,,html-keyboard-response,267,3245861,41,instrumental,,,None,,,,,,,,,,,,,,,,,,True,True,no_key
268,,html-keyboard-response,268,3246365,41,instrumental,,,None,,,,,,,,,,,,,,,,,,True,True,no_key
269,747.0,audio-keyboard-response,269,3247121,41,instrumental,sound/305,,80.0,generalization,space,negative,False,,2.0,300.0,700.0,p,,False,5.0,41.0,305.0,,,,False,False,positive
270,,html-keyboard-response,270,3248135,41,instrumental,,,None,,,,,,,,,,,,,,,,,,True,True,no_key
271,,html-keyboard-response,271,3248646,41,instrumental,,,None,,,,,,,,,,,,,,,,,,True,True,no_key
272,619.0,audio-keyboard-response,272,3249261,41,instrumental,sound/295,,81.0,generalization,space,negative,False,,2.0,300.0,700.0,p,,True,-5.0,42.0,295.0,,,,False,False,negative
273,,html-keyboard-response,273,3250277,41,instrumental,,,None,,,,,,,,,,,,,,,,,,True,True,no_key
274,,html-keyboard-response,274,3250789,41,instrumental,,,None,,,,,,,,,,,,,,,,,,True,True,no_key
275,533.0,audio-keyboard-response,275,3251324,41,instrumental,sound/800,,80.0,generalization,space,positive,False,,2.0,300.0,700.0,p,,True,100.0,43.0,800.0,,,,False,False,positive
276,,html-keyboard-response,276,3252329,41,instrumental,,,None,,,,,,,,,,,,,,,,,,True,True,no_key
277,,html-keyboard-response,277,3252839,41,instrumental,,,None,,,,,,,,,,,,,,,,,,True,True,no_key
278,480.0,audio-keyboard-response,278,3253320,41,instrumental,sound/695,,80.0,generalization,space,positive,False,,2.0,300.0,700.0,p,,True,-5.0,44.0,695.0,,,,False,False,positive
279,,html-keyboard-response,279,3254328,41,instrumental,,,None,,,,,,,,,,,,,,,,,,True,True,no_key
280,,html-keyboard-response,280,3254835,41,instrumental,,,None,,,,,,,,,,,,,,,,,,True,True,no_key
281,651.0,audio-keyboard-response,281,3255499,41,instrumental,sound/400,,81.0,generalization,space,negative,False,,2.0,300.0,700.0,p,,True,100.0,45.0,400.0,,,,False,False,negative
282,,html-keyboard-response,282,3256511,41,instrumental,,,None,,,,,,,,,,,,,,,,,,True,True,no_key
283,,html-keyboard-response,283,3257030,41,instrumental,,,None,,,,,,,,,,,,,,,,,,True,True,no_key
284,587.0,audio-keyboard-response,284,3257624,41,instrumental,sound/360,,80.0,generalization,space,negative,False,,2.0,300.0,700.0,p,,False,60.0,46.0,360.0,,,,False,False,positive
285,,html-keyboard-response,285,3258639,41,instrumental,,,None,,,,,,,,,,,,,,,,,,True,True,no_key
286,,html-keyboard-response,286,3259147,41,instrumental,,,None,,,,,,,,,,,,,,,,,,True,True,no_key
287,544.0,audio-keyboard-response,287,3259708,41,instrumental,sound/720,,80.0,generalization,space,positive,False,,2.0,300.0,700.0,p,,True,20.0,47.0,720.0,,,,False,False,positive
288,,html-keyboard-response,288,3260724,41,instrumental,,,None,,,,,,,,,,,,,,,,,,True,True,no_key
289,,html-keyboard-response,289,3261233,41,instrumental,,,None,,,,,,,,,,,,,,,,,,True,True,no_key
290,661.0,audio-keyboard-response,290,3261892,41,instrumental,sound/700,,80.0,generalization,p,positive,True,,2.0,300.0,700.0,p,,True,0.0,48.0,,,,,False,False,positive
291,,html-keyboard-response,291,3262903,41,instrumental,,,None,,,,,,,,,,,,,,,,,,True,True,no_key
292,,html-keyboard-response,292,3263413,41,instrumental,,,None,,,,,,,,,,,,,,,,,,True,True,no_key
293,683.0,audio-keyboard-response,293,3264098,41,instrumental,sound/300,,81.0,generalization,q,negative,True,,2.0,300.0,700.0,p,,True,0.0,49.0,,,,,False,False,negative
294,,html-keyboard-response,294,3265107,41,instrumental,,,None,,,,,,,,,,,,,,,,,,True,True,no_key
295,,html-keyboard-response,295,3265617,41,instrumental,,,None,,,,,,,,,,,,,,,,,,True,True,no_key
296,544.0,audio-keyboard-response,296,3266160,41,instrumental,sound/300,,81.0,generalization,q,negative,True,,2.0,300.0,700.0,p,,True,0.0,50.0,,,,,False,False,negative
297,,html-keyboard-response,297,3267175,41,instrumental,,,None,,,,,,,,,,,,,,,,,,True,True,no_key
298,,html-keyboard-response,298,3267683,41,instrumental,,,None,,,,,,,,,,,,,,,,,,True,True,no_key
299,768.0,audio-keyboard-response,299,3268446,41,instrumental,sound/480,,80.0,generalization,space,control,False,,2.0,300.0,700.0,p,,,,51.0,,,,,False,False,positive
300,,html-keyboard-response,300,3269463,41,instrumental,,,None,,,,,,,,,,,,,,,,,,True,True,no_key
301,,html-keyboard-response,301,3269985,41,instrumental,,,None,,,,,,,,,,,,,,,,,,True,True,no_key
302,544.0,audio-keyboard-response,302,3270532,41,instrumental,sound/300,,81.0,generalization,q,negative,True,,2.0,300.0,700.0,p,,True,0.0,52.0,,,,,False,False,negative
303,,html-keyboard-response,303,3271552,41,instrumental,,,None,,,,,,,,,,,,,,,,,,True,True,no_key
304,,html-keyboard-response,304,3272061,41,instrumental,,,None,,,,,,,,,,,,,,,,,,True,True,no_key
305,651.0,audio-keyboard-response,305,3272715,41,instrumental,sound/700,,80.0,generalization,p,positive,True,,2.0,300.0,700.0,p,,True,0.0,53.0,,,,,False,False,positive
306,,html-keyboard-response,306,3273722,41,instrumental,,,None,,,,,,,,,,,,,,,,,,True,True,no_key
307,,html-keyboard-response,307,3274226,41,instrumental,,,None,,,,,,,,,,,,,,,,,,True,True,no_key
308,597.0,audio-keyboard-response,308,3274820,41,instrumental,sound/280,,81.0,generalization,space,negative,False,,2.0,300.0,700.0,p,,True,-20.0,54.0,280.0,,,,False,False,negative
309,,html-keyboard-response,309,3275839,41,instrumental,,,None,,,,,,,,,,,,,,,,,,True,True,no_key
310,,html-keyboard-response,310,3276347,41,instrumental,,,None,,,,,,,,,,,,,,,,,,True,True,no_key
311,544.0,audio-keyboard-response,311,3276897,41,instrumental,sound/500,,80.0,generalization,space,control,False,,2.0,300.0,700.0,p,,,,55.0,,,,,False,False,positive
312,,html-keyboard-response,312,3277917,41,instrumental,,,None,,,,,,,,,,,,,,,,,,True,True,no_key
313,,html-keyboard-response,313,3278425,41,instrumental,,,None,,,,,,,,,,,,,,,,,,True,True,no_key
314,544.0,audio-keyboard-response,314,3278971,41,instrumental,sound/200,,81.0,generalization,space,negative,False,,2.0,300.0,700.0,p,,True,-100.0,56.0,200.0,,,,False,False,negative
315,,html-keyboard-response,315,3279976,41,instrumental,,,None,,,,,,,,,,,,,,,,,,True,True,no_key
316,,html-keyboard-response,316,3280497,41,instrumental,,,None,,,,,,,,,,,,,,,,,,True,True,no_key
317,480.0,audio-keyboard-response,317,3280989,41,instrumental,sound/240,,81.0,generalization,space,negative,False,,2.0,300.0,700.0,p,,True,-60.0,57.0,240.0,,,,False,False,negative
318,,html-keyboard-response,318,3282003,41,instrumental,,,None,,,,,,,,,,,,,,,,,,True,True,no_key
319,,html-keyboard-response,319,3282512,41,instrumental,,,None,,,,,,,,,,,,,,,,,,True,True,no_key
320,576.0,audio-keyboard-response,320,3283099,41,instrumental,sound/520,,80.0,generalization,space,control,False,,2.0,300.0,700.0,p,,,,58.0,,,,,False,False,positive
321,,html-keyboard-response,321,3284107,41,instrumental,,,None,,,,,,,,,,,,,,,,,,True,True,no_key
322,,html-keyboard-response,322,3284613,41,instrumental,,,None,,,,,,,,,,,,,,,,,,True,True,no_key
323,501.0,audio-keyboard-response,323,3285120,41,instrumental,sound/705,,80.0,generalization,space,positive,False,,2.0,300.0,700.0,p,,True,5.0,59.0,705.0,,,,False,False,positive
324,,html-keyboard-response,324,3286138,41,instrumental,,,None,,,,,,,,,,,,,,,,,,True,True,no_key
325,1672.0,html-keyboard-response,325,3287816,41,instrumental,bonus earned during this period: $0.28<br><br>Press any key to continue.,,32.0,,,,,,,,,,,,,,,,,,True,True,neutral
326,1231.0,instructions,326,3289051,41,instrumental,,,None,,,,,,,,,,,,,,,,,,True,True,no_key
327,,html-keyboard-response,327,3290474,41,instrumental,"<div style=""font-size:120%; top:20%""></div>",,None,,,,,,,,,,,,,,,,,,True,True,no_key
328,512.0,audio-keyboard-response,328,3290983,41,instrumental,sound/700,,80.0,acquisition,p,positive,True,36.0,3.0,300.0,700.0,p,700.0,True,,,,,,,False,False,positive
329,,html-keyboard-response,329,3292091,41,instrumental,"<font size=""100%"" weight=bold> correct! + $0.04</font>",,None,,,,,,,,,,,,,,,,,,True,True,no_key
330,,html-keyboard-response,330,3293625,41,instrumental,"<div style=""font-size:120%; top:20%""></div>",,None,,,,,,,,,,,,,,,,,,True,True,no_key
331,480.0,audio-keyboard-response,331,3294119,41,instrumental,sound/700,,80.0,acquisition,p,positive,True,37.0,3.0,300.0,700.0,p,700.0,True,,,,,,,False,False,positive
332,,html-keyboard-response,332,3295233,41,instrumental,"<font size=""100%"" weight=bold> correct! + $0.04</font>",,None,,,,,,,,,,,,,,,,,,True,True,no_key
333,,html-keyboard-response,333,3296748,41,instrumental,"<div style=""font-size:120%; top:20%""></div>",,None,,,,,,,,,,,,,,,,,,True,True,no_key
334,491.0,audio-keyboard-response,334,3297240,41,instrumental,sound/500,,81.0,acquisition,anything,neutral,False,38.0,3.0,300.0,700.0,p,500.0,,,,,,,,False,False,negative
335,,html-keyboard-response,335,3298352,41,instrumental,"<font size=""100%"">neutral! so no change in bonus.</font>",,None,,,,,,,,,,,,,,,,,,True,True,no_key
336,,html-keyboard-response,336,3299873,41,instrumental,"<div style=""font-size:120%; top:20%""></div>",,None,,,,,,,,,,,,,,,,,,True,True,no_key
337,619.0,audio-keyboard-response,337,3300496,41,instrumental,sound/700,,80.0,acquisition,p,positive,True,39.0,3.0,300.0,700.0,p,700.0,True,,,,,,,False,False,positive
338,,html-keyboard-response,338,3301624,41,instrumental,"<font size=""100%"" weight=bold> correct! + $0.04</font>",,None,,,,,,,,,,,,,,,,,,True,True,no_key
339,,html-keyboard-response,339,3303150,41,instrumental,"<div style=""font-size:120%; top:20%""></div>",,None,,,,,,,,,,,,,,,,,,True,True,no_key
340,576.0,audio-keyboard-response,340,3303736,41,instrumental,sound/300,,81.0,acquisition,q,negative,True,40.0,3.0,300.0,700.0,p,300.0,True,,,,,,,False,False,negative
341,,html-keyboard-response,341,3304855,41,instrumental,"<font size=""100%"" weight=bold> correct! - $0.00 </font>",,None,,,,,,,,,,,,,,,,,,True,True,no_key
342,,html-keyboard-response,342,3306381,41,instrumental,"<div style=""font-size:120%; top:20%""></div>",,None,,,,,,,,,,,,,,,,,,True,True,no_key
343,512.0,audio-keyboard-response,343,3306904,41,instrumental,sound/300,,81.0,acquisition,q,negative,True,41.0,3.0,300.0,700.0,p,300.0,True,,,,,,,False,False,negative
344,,html-keyboard-response,344,3308012,41,instrumental,"<font size=""100%"" weight=bold> correct! - $0.00 </font>",,None,,,,,,,,,,,,,,,,,,True,True,no_key
345,,html-keyboard-response,345,3309533,41,instrumental,"<div style=""font-size:120%; top:20%""></div>",,None,,,,,,,,,,,,,,,,,,True,True,no_key
346,512.0,audio-keyboard-response,346,3310048,41,instrumental,sound/500,,81.0,acquisition,anything,neutral,False,42.0,3.0,300.0,700.0,p,500.0,,,,,,,,False,False,negative
347,,html-keyboard-response,347,3311165,41,instrumental,"<font size=""100%"">neutral! so no change in bonus.</font>",,None,,,,,,,,,,,,,,,,,,True,True,no_key
348,,html-keyboard-response,348,3312684,41,instrumental,"<div style=""font-size:120%; top:20%""></div>",,None,,,,,,,,,,,,,,,,,,True,True,no_key
349,,audio-keyboard-response,349,3315193,41,instrumental,sound/300,,None,acquisition,anything,negative,False,,3.0,300.0,700.0,p,300.0,,,,,,,,False,False,no_key
350,,html-keyboard-response,350,3316318,41,instrumental,"<font size=""100%"" weight=bold> incorrect! - $0.04</font>",,None,,,,,,,,,,,,,,,,,,True,True,no_key
351,,html-keyboard-response,351,3317843,41,instrumental,"<div style=""font-size:120%; top:20%""></div>",,None,,,,,,,,,,,,,,,,,,True,True,no_key
352,565.0,audio-keyboard-response,352,3318420,41,instrumental,sound/300,,81.0,acquisition,q,negative,True,43.0,3.0,300.0,700.0,p,300.0,True,,,,,,,False,False,negative
353,,html-keyboard-response,353,3319553,41,instrumental,"<font size=""100%"" weight=bold> correct! - $0.00 </font>",,None,,,,,,,,,,,,,,,,,,True,True,no_key
354,,html-keyboard-response,354,3321072,41,instrumental,"<div style=""font-size:120%; top:20%""></div>",,None,,,,,,,,,,,,,,,,,,True,True,no_key
355,,audio-keyboard-response,355,3323592,41,instrumental,sound/700,,None,acquisition,anything,positive,True,,3.0,300.0,700.0,p,700.0,,,,,,,,False,False,no_key
356,,html-keyboard-response,356,3324715,41,instrumental,"<font size=""100%"" weight=bold> correct! + $0.04</font>",,None,,,,,,,,,,,,,,,,,,True,True,no_key
357,,html-keyboard-response,357,3326226,41,instrumental,"<div style=""font-size:120%; top:20%""></div>",,None,,,,,,,,,,,,,,,,,,True,True,no_key
358,629.0,audio-keyboard-response,358,3326857,41,instrumental,sound/500,,81.0,acquisition,anything,neutral,False,44.0,3.0,300.0,700.0,p,500.0,,,,,,,,False,False,negative
359,,html-keyboard-response,359,3327981,41,instrumental,"<font size=""100%"">neutral! so no change in bonus.</font>",,None,,,,,,,,,,,,,,,,,,True,True,no_key
360,,html-keyboard-response,360,3329496,41,instrumental,"<div style=""font-size:120%; top:20%""></div>",,None,,,,,,,,,,,,,,,,,,True,True,no_key
361,565.0,audio-keyboard-response,361,3330079,41,instrumental,sound/700,,80.0,acquisition,p,positive,True,45.0,3.0,300.0,700.0,p,700.0,True,,,,,,,False,False,positive
362,,html-keyboard-response,362,3331203,41,instrumental,"<font size=""100%"" weight=bold> correct! + $0.04</font>",,None,,,,,,,,,,,,,,,,,,True,True,no_key
363,,html-keyboard-response,363,3332722,41,instrumental,"<div style=""font-size:120%; top:20%""></div>",,None,,,,,,,,,,,,,,,,,,True,True,no_key
364,480.0,audio-keyboard-response,364,3333207,41,instrumental,sound/700,,80.0,acquisition,p,positive,True,46.0,3.0,300.0,700.0,p,700.0,True,,,,,,,False,False,positive
365,,html-keyboard-response,365,3334323,41,instrumental,"<font size=""100%"" weight=bold> correct! + $0.04</font>",,None,,,,,,,,,,,,,,,,,,True,True,no_key
366,,html-keyboard-response,366,3335842,41,instrumental,"<div style=""font-size:120%; top:20%""></div>",,None,,,,,,,,,,,,,,,,,,True,True,no_key
367,533.0,audio-keyboard-response,367,3336377,41,instrumental,sound/300,,81.0,acquisition,q,negative,True,47.0,3.0,300.0,700.0,p,300.0,True,,,,,,,False,False,negative
368,,html-keyboard-response,368,3337489,41,instrumental,"<font size=""100%"" weight=bold> correct! - $0.00 </font>",,None,,,,,,,,,,,,,,,,,,True,True,no_key
369,,html-keyboard-response,369,3339023,41,instrumental,"<div style=""font-size:120%; top:20%""></div>",,None,,,,,,,,,,,,,,,,,,True,True,no_key
370,555.0,audio-keyboard-response,370,3339583,41,instrumental,sound/700,,80.0,acquisition,p,positive,True,48.0,3.0,300.0,700.0,p,700.0,True,,,,,,,False,False,positive
371,,html-keyboard-response,371,3340704,41,instrumental,"<font size=""100%"" weight=bold> correct! + $0.04</font>",,None,,,,,,,,,,,,,,,,,,True,True,no_key
372,,html-keyboard-response,372,3342226,41,instrumental,"<div style=""font-size:120%; top:20%""></div>",,None,,,,,,,,,,,,,,,,,,True,True,no_key
373,,audio-keyboard-response,373,3344744,41,instrumental,sound/700,,None,acquisition,anything,positive,True,,3.0,300.0,700.0,p,700.0,,,,,,,,False,False,no_key
374,,html-keyboard-response,374,3345876,41,instrumental,"<font size=""100%"" weight=bold> correct! + $0.04</font>",,None,,,,,,,,,,,,,,,,,,True,True,no_key
375,,html-keyboard-response,375,3347410,41,instrumental,"<div style=""font-size:120%; top:20%""></div>",,None,,,,,,,,,,,,,,,,,,True,True,no_key
376,619.0,audio-keyboard-response,376,3348034,41,instrumental,sound/500,,81.0,acquisition,anything,neutral,False,49.0,3.0,300.0,700.0,p,500.0,,,,,,,,False,False,negative
377,,html-keyboard-response,377,3349162,41,instrumental,"<font size=""100%"">neutral! so no change in bonus.</font>",,None,,,,,,,,,,,,,,,,,,True,True,no_key
378,,html-keyboard-response,378,3350697,41,instrumental,"<div style=""font-size:120%; top:20%""></div>",,None,,,,,,,,,,,,,,,,,,True,True,no_key
379,715.0,audio-keyboard-response,379,3353218,41,instrumental,sound/300,,81.0,acquisition,anything,negative,False,,3.0,300.0,700.0,p,300.0,,,,,,,,False,False,negative
380,,html-keyboard-response,380,3354337,41,instrumental,"<font size=""100%"" weight=bold> incorrect! - $0.04</font>",,None,,,,,,,,,,,,,,,,,,True,True,no_key
381,,html-keyboard-response,381,3355860,41,instrumental,"<div style=""font-size:120%; top:20%""></div>",,None,,,,,,,,,,,,,,,,,,True,True,no_key
382,491.0,audio-keyboard-response,382,3356356,41,instrumental,sound/300,,81.0,acquisition,q,negative,True,50.0,3.0,300.0,700.0,p,300.0,True,,,,,,,False,False,negative
383,,html-keyboard-response,383,3357483,41,instrumental,"<font size=""100%"" weight=bold> correct! - $0.00 </font>",,None,,,,,,,,,,,,,,,,,,True,True,no_key
384,,html-keyboard-response,384,3359017,41,instrumental,"<div style=""font-size:120%; top:20%""></div>",,None,,,,,,,,,,,,,,,,,,True,True,no_key
385,683.0,audio-keyboard-response,385,3359722,41,instrumental,sound/300,,81.0,acquisition,q,negative,True,51.0,3.0,300.0,700.0,p,300.0,True,,,,,,,False,False,negative
386,,html-keyboard-response,386,3360835,41,instrumental,"<font size=""100%"" weight=bold> correct! - $0.00 </font>",,None,,,,,,,,,,,,,,,,,,True,True,no_key
387,,html-keyboard-response,387,3362361,41,instrumental,"<div style=""font-size:120%; top:20%""></div>",,None,,,,,,,,,,,,,,,,,,True,True,no_key
388,501.0,audio-keyboard-response,388,3362864,41,instrumental,sound/500,,81.0,acquisition,anything,neutral,False,52.0,3.0,300.0,700.0,p,500.0,,,,,,,,False,False,negative
389,,html-keyboard-response,389,3363987,41,instrumental,"<font size=""100%"">neutral! so no change in bonus.</font>",,None,,,,,,,,,,,,,,,,,,True,True,no_key
390,,html-keyboard-response,390,3365506,41,instrumental,"<div style=""font-size:120%; top:20%""></div>",,None,,,,,,,,,,,,,,,,,,True,True,no_key
391,,audio-keyboard-response,391,3368025,41,instrumental,sound/500,,None,acquisition,anything,neutral,True,53.0,3.0,300.0,700.0,p,500.0,,,,,,,,False,False,no_key
392,,html-keyboard-response,392,3369144,41,instrumental,"<font size=""100%"">neutral! so no change in bonus.</font>",,None,,,,,,,,,,,,,,,,,,True,True,no_key
393,1910.0,html-keyboard-response,393,3371563,41,instrumental,The total bonus amount of bonus you earned in this last period was $0.24.<br> Press any key to continue to the next step.,,32.0,,,,,,,,,,,,,,,,,,True,True,neutral
394,1489.0,instructions,394,3373057,41,instrumental,,,None,,,,,,,,,,,,,,,,,,True,True,no_key
395,,html-keyboard-response,395,3373984,41,instrumental,,,None,,,,,,,,,,,,,,,,,,True,True,no_key
396,747.0,audio-keyboard-response,396,3374740,41,instrumental,sound/295,,32.0,generalization,space,negative,True,,3.0,300.0,700.0,p,,False,-5.0,60.0,295.0,,,,False,False,neutral
397,,html-keyboard-response,397,3375750,41,instrumental,,,None,,,,,,,,,,,,,,,,,,True,True,no_key
398,,html-keyboard-response,398,3376270,41,instrumental,,,None,,,,,,,,,,,,,,,,,,True,True,no_key
399,640.0,audio-keyboard-response,399,3376917,41,instrumental,sound/500,,80.0,generalization,space,control,False,,3.0,300.0,700.0,p,,,,61.0,,,,,False,False,positive
400,,html-keyboard-response,400,3377933,41,instrumental,,,None,,,,,,,,,,,,,,,,,,True,True,no_key
401,,html-keyboard-response,401,3378453,41,instrumental,,,None,,,,,,,,,,,,,,,,,,True,True,no_key
402,576.0,audio-keyboard-response,402,3379031,41,instrumental,sound/680,,80.0,generalization,space,positive,False,,3.0,300.0,700.0,p,,True,-20.0,62.0,680.0,,,,False,False,positive
403,,html-keyboard-response,403,3380041,41,instrumental,,,None,,,,,,,,,,,,,,,,,,True,True,no_key
404,,html-keyboard-response,404,3380549,41,instrumental,,,None,,,,,,,,,,,,,,,,,,True,True,no_key
405,523.0,audio-keyboard-response,405,3381079,41,instrumental,sound/700,,80.0,generalization,p,positive,True,,3.0,300.0,700.0,p,,True,0.0,63.0,,,,,False,False,positive
406,,html-keyboard-response,406,3382095,41,instrumental,,,None,,,,,,,,,,,,,,,,,,True,True,no_key
407,,html-keyboard-response,407,3382608,41,instrumental,,,None,,,,,,,,,,,,,,,,,,True,True,no_key
408,469.0,audio-keyboard-response,408,3383093,41,instrumental,sound/720,,80.0,generalization,space,positive,False,,3.0,300.0,700.0,p,,True,20.0,64.0,720.0,,,,False,False,positive
409,,html-keyboard-response,409,3384113,41,instrumental,,,None,,,,,,,,,,,,,,,,,,True,True,no_key
410,,html-keyboard-response,410,3384620,41,instrumental,,,None,,,,,,,,,,,,,,,,,,True,True,no_key
411,459.0,audio-keyboard-response,411,3385091,41,instrumental,sound/700,,80.0,generalization,p,positive,True,,3.0,300.0,700.0,p,,True,0.0,65.0,,,,,False,False,positive
412,,html-keyboard-response,412,3386106,41,instrumental,,,None,,,,,,,,,,,,,,,,,,True,True,no_key
413,,html-keyboard-response,413,3386627,41,instrumental,,,None,,,,,,,,,,,,,,,,,,True,True,no_key
414,736.0,audio-keyboard-response,414,3387368,41,instrumental,sound/300,,81.0,generalization,q,negative,True,,3.0,300.0,700.0,p,,True,0.0,66.0,,,,,False,False,negative
415,,html-keyboard-response,415,3388380,41,instrumental,,,None,,,,,,,,,,,,,,,,,,True,True,no_key
416,,html-keyboard-response,416,3388891,41,instrumental,,,None,,,,,,,,,,,,,,,,,,True,True,no_key
417,1429.0,audio-keyboard-response,417,3390331,41,instrumental,sound/520,,81.0,generalization,space,control,False,,3.0,300.0,700.0,p,,,,67.0,,,,,False,False,negative
418,,html-keyboard-response,418,3391349,41,instrumental,,,None,,,,,,,,,,,,,,,,,,True,True,no_key
419,,html-keyboard-response,419,3391859,41,instrumental,,,None,,,,,,,,,,,,,,,,,,True,True,no_key
420,693.0,audio-keyboard-response,420,3392559,41,instrumental,sound/800,,80.0,generalization,space,positive,False,,3.0,300.0,700.0,p,,True,100.0,68.0,800.0,,,,False,False,positive
421,,html-keyboard-response,421,3393573,41,instrumental,,,None,,,,,,,,,,,,,,,,,,True,True,no_key
422,,html-keyboard-response,422,3394083,41,instrumental,,,None,,,,,,,,,,,,,,,,,,True,True,no_key
423,725.0,audio-keyboard-response,423,3394807,41,instrumental,sound/320,,32.0,generalization,space,negative,True,,3.0,300.0,700.0,p,,False,20.0,69.0,320.0,,,,False,False,neutral
424,,html-keyboard-response,424,3395819,41,instrumental,,,None,,,,,,,,,,,,,,,,,,True,True,no_key
425,,html-keyboard-response,425,3396331,41,instrumental,,,None,,,,,,,,,,,,,,,,,,True,True,no_key
426,725.0,audio-keyboard-response,426,3397055,41,instrumental,sound/920,,80.0,generalization,space,control,False,,3.0,300.0,700.0,p,,,,70.0,,,,,False,False,positive
427,,html-keyboard-response,427,3398070,41,instrumental,,,None,,,,,,,,,,,,,,,,,,True,True,no_key
428,,html-keyboard-response,428,3398580,41,instrumental,,,None,,,,,,,,,,,,,,,,,,True,True,no_key
429,821.0,audio-keyboard-response,429,3399413,41,instrumental,sound/200,,81.0,generalization,space,negative,False,,3.0,300.0,700.0,p,,True,-100.0,71.0,200.0,,,,False,False,negative
430,,html-keyboard-response,430,3400427,41,instrumental,,,None,,,,,,,,,,,,,,,,,,True,True,no_key
431,,html-keyboard-response,431,3400934,41,instrumental,,,None,,,,,,,,,,,,,,,,,,True,True,no_key
432,640.0,audio-keyboard-response,432,3401575,41,instrumental,sound/600,,32.0,generalization,space,positive,True,,3.0,300.0,700.0,p,,False,-100.0,72.0,600.0,,,,False,False,neutral
433,,html-keyboard-response,433,3402594,41,instrumental,,,None,,,,,,,,,,,,,,,,,,True,True,no_key
434,,html-keyboard-response,434,3403115,41,instrumental,,,None,,,,,,,,,,,,,,,,,,True,True,no_key
435,1141.0,audio-keyboard-response,435,3404262,41,instrumental,sound/640,,32.0,generalization,space,positive,True,,3.0,300.0,700.0,p,,False,-60.0,73.0,640.0,,,,False,False,neutral
436,,html-keyboard-response,436,3405269,41,instrumental,,,None,,,,,,,,,,,,,,,,,,True,True,no_key
437,,html-keyboard-response,437,3405791,41,instrumental,,,None,,,,,,,,,,,,,,,,,,True,True,no_key
438,651.0,audio-keyboard-response,438,3406445,41,instrumental,sound/240,,81.0,generalization,space,negative,False,,3.0,300.0,700.0,p,,True,-60.0,74.0,240.0,,,,False,False,negative
439,,html-keyboard-response,439,3407464,41,instrumental,,,None,,,,,,,,,,,,,,,,,,True,True,no_key
440,,html-keyboard-response,440,3407971,41,instrumental,,,None,,,,,,,,,,,,,,,,,,True,True,no_key
441,544.0,audio-keyboard-response,441,3408529,41,instrumental,sound/900,,80.0,generalization,space,control,False,,3.0,300.0,700.0,p,,,,75.0,,,,,False,False,positive
442,,html-keyboard-response,442,3409547,41,instrumental,,,None,,,,,,,,,,,,,,,,,,True,True,no_key
443,,html-keyboard-response,443,3410067,41,instrumental,,,None,,,,,,,,,,,,,,,,,,True,True,no_key
444,907.0,audio-keyboard-response,444,3410980,41,instrumental,sound/360,,32.0,generalization,space,negative,True,,3.0,300.0,700.0,p,,False,60.0,76.0,360.0,,,,False,False,neutral
445,,html-keyboard-response,445,3411999,41,instrumental,,,None,,,,,,,,,,,,,,,,,,True,True,no_key
446,,html-keyboard-response,446,3412508,41,instrumental,,,None,,,,,,,,,,,,,,,,,,True,True,no_key
447,1333.0,audio-keyboard-response,447,3413836,41,instrumental,sound/700,,32.0,generalization,p,positive,False,,3.0,300.0,700.0,p,,False,0.0,77.0,,,,,False,False,neutral
448,,html-keyboard-response,448,3414855,41,instrumental,,,None,,,,,,,,,,,,,,,,,,True,True,no_key
449,,html-keyboard-response,449,3415364,41,instrumental,,,None,,,,,,,,,,,,,,,,,,True,True,no_key
450,992.0,audio-keyboard-response,450,3416362,41,instrumental,sound/700,,32.0,generalization,p,positive,False,,3.0,300.0,700.0,p,,False,0.0,78.0,,,,,False,False,neutral
451,,html-keyboard-response,451,3417371,41,instrumental,,,None,,,,,,,,,,,,,,,,,,True,True,no_key
452,,html-keyboard-response,452,3417878,41,instrumental,,,None,,,,,,,,,,,,,,,,,,True,True,no_key
453,725.0,audio-keyboard-response,453,3418619,41,instrumental,sound/300,,81.0,generalization,q,negative,True,,3.0,300.0,700.0,p,,True,0.0,79.0,,,,,False,False,negative
454,,html-keyboard-response,454,3419631,41,instrumental,,,None,,,,,,,,,,,,,,,,,,True,True,no_key
455,,html-keyboard-response,455,3420138,41,instrumental,,,None,,,,,,,,,,,,,,,,,,True,True,no_key
456,576.0,audio-keyboard-response,456,3420719,41,instrumental,sound/760,,80.0,generalization,space,positive,False,,3.0,300.0,700.0,p,,True,60.0,80.0,760.0,,,,False,False,positive
457,,html-keyboard-response,457,3421734,41,instrumental,,,None,,,,,,,,,,,,,,,,,,True,True,no_key
458,,html-keyboard-response,458,3422244,41,instrumental,,,None,,,,,,,,,,,,,,,,,,True,True,no_key
459,736.0,audio-keyboard-response,459,3422982,41,instrumental,sound/300,,81.0,generalization,q,negative,True,,3.0,300.0,700.0,p,,True,0.0,81.0,,,,,False,False,negative
460,,html-keyboard-response,460,3423999,41,instrumental,,,None,,,,,,,,,,,,,,,,,,True,True,no_key
461,,html-keyboard-response,461,3424519,41,instrumental,,,None,,,,,,,,,,,,,,,,,,True,True,no_key
462,715.0,audio-keyboard-response,462,3425232,41,instrumental,sound/300,,81.0,generalization,q,negative,True,,3.0,300.0,700.0,p,,True,0.0,82.0,,,,,False,False,negative
463,,html-keyboard-response,463,3426240,41,instrumental,,,None,,,,,,,,,,,,,,,,,,True,True,no_key
464,,html-keyboard-response,464,3426747,41,instrumental,,,None,,,,,,,,,,,,,,,,,,True,True,no_key
465,715.0,audio-keyboard-response,465,3427464,41,instrumental,sound/280,,81.0,generalization,space,negative,False,,3.0,300.0,700.0,p,,True,-20.0,83.0,280.0,,,,False,False,negative
466,,html-keyboard-response,466,3428484,41,instrumental,,,None,,,,,,,,,,,,,,,,,,True,True,no_key
467,,html-keyboard-response,467,3429005,41,instrumental,,,None,,,,,,,,,,,,,,,,,,True,True,no_key
468,960.0,audio-keyboard-response,468,3429971,41,instrumental,sound/695,,80.0,generalization,space,positive,False,,3.0,300.0,700.0,p,,True,-5.0,84.0,695.0,,,,False,False,positive
469,,html-keyboard-response,469,3430981,41,instrumental,,,None,,,,,,,,,,,,,,,,,,True,True,no_key
470,,html-keyboard-response,470,3431492,41,instrumental,,,None,,,,,,,,,,,,,,,,,,True,True,no_key
471,480.0,audio-keyboard-response,471,3431981,41,instrumental,sound/880,,80.0,generalization,space,control,False,,3.0,300.0,700.0,p,,,,85.0,,,,,False,False,positive
472,,html-keyboard-response,472,3432993,41,instrumental,,,None,,,,,,,,,,,,,,,,,,True,True,no_key
473,,html-keyboard-response,473,3433507,41,instrumental,,,None,,,,,,,,,,,,,,,,,,True,True,no_key
474,896.0,audio-keyboard-response,474,3434413,41,instrumental,sound/480,,81.0,generalization,space,control,False,,3.0,300.0,700.0,p,,,,86.0,,,,,False,False,negative
475,,html-keyboard-response,475,3435432,41,instrumental,,,None,,,,,,,,,,,,,,,,,,True,True,no_key
476,,html-keyboard-response,476,3435940,41,instrumental,,,None,,,,,,,,,,,,,,,,,,True,True,no_key
477,843.0,audio-keyboard-response,477,3436787,41,instrumental,sound/305,,81.0,generalization,space,negative,False,,3.0,300.0,700.0,p,,True,5.0,87.0,305.0,,,,False,False,negative
478,,html-keyboard-response,478,3437800,41,instrumental,,,None,,,,,,,,,,,,,,,,,,True,True,no_key
479,,html-keyboard-response,479,3438308,41,instrumental,,,None,,,,,,,,,,,,,,,,,,True,True,no_key
480,565.0,audio-keyboard-response,480,3438889,41,instrumental,sound/705,,80.0,generalization,space,positive,False,,3.0,300.0,700.0,p,,True,5.0,88.0,705.0,,,,False,False,positive
481,,html-keyboard-response,481,3439911,41,instrumental,,,None,,,,,,,,,,,,,,,,,,True,True,no_key
482,,html-keyboard-response,482,3440434,41,instrumental,,,None,,,,,,,,,,,,,,,,,,True,True,no_key
483,629.0,audio-keyboard-response,483,3441073,41,instrumental,sound/400,,81.0,generalization,space,negative,False,,3.0,300.0,700.0,p,,True,100.0,89.0,400.0,,,,False,False,negative
484,,html-keyboard-response,484,3442092,41,instrumental,,,None,,,,,,,,,,,,,,,,,,True,True,no_key
485,967.0,html-keyboard-response,485,3443066,41,instrumental,bonus earned during this period: $0.44<br><br>Press any key to continue.,,32.0,,,,,,,,,,,,,,,,,,True,True,neutral
0,2420.0,instructions,0,2423,42,instrumental,,,None,,,,,,,,,,,,,,,,,,True,True,no_key
1,6571.0,html-button-response,1,10015,42,instrumental,"<p>Before we begin this experiment, please make sure your sound is on and un-muted. When you are ready, press the button below!</p>",0.0,None,,,,,,,,,,,,,,,,,,True,True,no_key
2,394008.0,instructions,2,404025,42,instrumental,,,None,,,,,,,,,,,,,,,,,,True,True,no_key
3,3440.0,audio-button-response,3,408481,42,instrumental,sound/500,0.0,None,,,,,,,,,,,,,,,,,,True,True,no_key
4,1882.0,audio-button-response,4,410365,42,instrumental,sound/500,0.0,None,,,,,,,,,,,,,,,,,,True,True,no_key
5,2306.0,audio-button-response,5,412674,42,instrumental,sound/500,0.0,None,,,,,,,,,,,,,,,,,,True,True,no_key
6,6805.0,instructions,6,419481,42,instrumental,,,None,,,,,,,,,,,,,,,,,,True,True,no_key
7,,html-keyboard-response,7,420907,42,instrumental,"<div style=""font-size:120%; top:20%""></div>",,None,,,,,,,,,,,,,,,,,,True,True,no_key
8,,audio-keyboard-response,8,423424,42,instrumental,sound/300,,None,acquisition,q,positive,False,0.0,1.0,700.0,300.0,q,300.0,,,,,,,,False,False,no_key
9,,html-keyboard-response,9,424539,42,instrumental,"<font size=""100%"" weight=bold> incorrect! + $0.00 </font>",,None,,,,,,,,,,,,,,,,,,True,True,no_key
10,,html-keyboard-response,10,426058,42,instrumental,"<div style=""font-size:120%; top:20%""></div>",,None,,,,,,,,,,,,,,,,,,True,True,no_key
11,,audio-keyboard-response,11,428575,42,instrumental,sound/300,,None,acquisition,anything,positive,True,,1.0,700.0,300.0,q,300.0,,,,,,,,False,False,no_key
12,,html-keyboard-response,12,429698,42,instrumental,"<font size=""100%"" weight=bold> correct! + $0.04</font>",,None,,,,,,,,,,,,,,,,,,True,True,no_key
13,,html-keyboard-response,13,431231,42,instrumental,"<div style=""font-size:120%; top:20%""></div>",,None,,,,,,,,,,,,,,,,,,True,True,no_key
14,1480.0,audio-keyboard-response,14,432714,42,instrumental,sound/500,,81.0,acquisition,anything,neutral,False,1.0,1.0,700.0,300.0,q,500.0,,,,,,,,False,False,positive
15,,html-keyboard-response,15,433830,42,instrumental,"<font size=""100%"">neutral! so no change in bonus.</font>",,None,,,,,,,,,,,,,,,,,,True,True,no_key
16,,html-keyboard-response,16,435338,42,instrumental,"<div style=""font-size:120%; top:20%""></div>",,None,,,,,,,,,,,,,,,,,,True,True,no_key
17,1251.0,audio-keyboard-response,17,436593,42,instrumental,sound/700,,81.0,acquisition,p,negative,False,2.0,1.0,700.0,300.0,q,700.0,False,,,,,,,False,False,positive
18,,html-keyboard-response,18,437717,42,instrumental,"<font size=""100%"" weight=bold> incorrect! - $0.04</font>",,None,,,,,,,,,,,,,,,,,,True,True,no_key
19,,html-keyboard-response,19,439228,42,instrumental,"<div style=""font-size:120%; top:20%""></div>",,None,,,,,,,,,,,,,,,,,,True,True,no_key
20,1061.0,audio-keyboard-response,20,440297,42,instrumental,sound/300,,81.0,acquisition,q,positive,True,3.0,1.0,700.0,300.0,q,300.0,True,,,,,,,False,False,positive
21,,html-keyboard-response,21,441427,42,instrumental,"<font size=""100%"" weight=bold> correct! + $0.04</font>",,None,,,,,,,,,,,,,,,,,,True,True,no_key
22,,html-keyboard-response,22,442937,42,instrumental,"<div style=""font-size:120%; top:20%""></div>",,None,,,,,,,,,,,,,,,,,,True,True,no_key
23,771.0,audio-keyboard-response,23,443710,42,instrumental,sound/300,,81.0,acquisition,q,positive,True,4.0,1.0,700.0,300.0,q,300.0,True,,,,,,,False,False,positive
24,,html-keyboard-response,24,444830,42,instrumental,"<font size=""100%"" weight=bold> correct! + $0.04</font>",,None,,,,,,,,,,,,,,,,,,True,True,no_key
25,,html-keyboard-response,25,446342,42,instrumental,"<div style=""font-size:120%; top:20%""></div>",,None,,,,,,,,,,,,,,,,,,True,True,no_key
26,720.0,audio-keyboard-response,26,447067,42,instrumental,sound/500,,80.0,acquisition,anything,neutral,False,5.0,1.0,700.0,300.0,q,500.0,,,,,,,,False,False,negative
27,,html-keyboard-response,27,448178,42,instrumental,"<font size=""100%"">neutral! so no change in bonus.</font>",,None,,,,,,,,,,,,,,,,,,True,True,no_key
28,,html-keyboard-response,28,449683,42,instrumental,"<div style=""font-size:120%; top:20%""></div>",,None,,,,,,,,,,,,,,,,,,True,True,no_key
29,,audio-keyboard-response,29,452203,42,instrumental,sound/700,,None,acquisition,anything,negative,False,,1.0,700.0,300.0,q,700.0,,,,,,,,False,False,no_key
30,,html-keyboard-response,30,453322,42,instrumental,"<font size=""100%"" weight=bold> incorrect! - $0.04</font>",,None,,,,,,,,,,,,,,,,,,True,True,no_key
31,,html-keyboard-response,31,454852,42,instrumental,"<div style=""font-size:120%; top:20%""></div>",,None,,,,,,,,,,,,,,,,,,True,True,no_key
32,872.0,audio-keyboard-response,32,455732,42,instrumental,sound/700,,80.0,acquisition,p,negative,True,6.0,1.0,700.0,300.0,q,700.0,True,,,,,,,False,False,negative
33,,html-keyboard-response,33,456852,42,instrumental,"<font size=""100%"" weight=bold> correct! - $0.00 </font>",,None,,,,,,,,,,,,,,,,,,True,True,no_key
34,,html-keyboard-response,34,458365,42,instrumental,"<div style=""font-size:120%; top:20%""></div>",,None,,,,,,,,,,,,,,,,,,True,True,no_key
35,600.0,audio-keyboard-response,35,458972,42,instrumental,sound/700,,80.0,acquisition,p,negative,True,7.0,1.0,700.0,300.0,q,700.0,True,,,,,,,False,False,negative
36,,html-keyboard-response,36,460093,42,instrumental,"<font size=""100%"" weight=bold> correct! - $0.00 </font>",,None,,,,,,,,,,,,,,,,,,True,True,no_key
37,,html-keyboard-response,37,461608,42,instrumental,"<div style=""font-size:120%; top:20%""></div>",,None,,,,,,,,,,,,,,,,,,True,True,no_key
38,,audio-keyboard-response,38,464121,42,instrumental,sound/500,,None,acquisition,anything,neutral,True,8.0,1.0,700.0,300.0,q,500.0,,,,,,,,False,False,no_key
39,,html-keyboard-response,39,465243,42,instrumental,"<font size=""100%"">neutral! so no change in bonus.</font>",,None,,,,,,,,,,,,,,,,,,True,True,no_key
40,,html-keyboard-response,40,466774,42,instrumental,"<div style=""font-size:120%; top:20%""></div>",,None,,,,,,,,,,,,,,,,,,True,True,no_key
41,1109.0,audio-keyboard-response,41,467892,42,instrumental,sound/300,,81.0,acquisition,q,positive,True,9.0,1.0,700.0,300.0,q,300.0,True,,,,,,,False,False,positive
42,,html-keyboard-response,42,469020,42,instrumental,"<font size=""100%"" weight=bold> correct! + $0.04</font>",,None,,,,,,,,,,,,,,,,,,True,True,no_key
43,,html-keyboard-response,43,470545,42,instrumental,"<div style=""font-size:120%; top:20%""></div>",,None,,,,,,,,,,,,,,,,,,True,True,no_key
44,840.0,audio-keyboard-response,44,471391,42,instrumental,sound/700,,80.0,acquisition,p,negative,True,10.0,1.0,700.0,300.0,q,700.0,True,,,,,,,False,False,negative
45,,html-keyboard-response,45,472518,42,instrumental,"<font size=""100%"" weight=bold> correct! - $0.00 </font>",,None,,,,,,,,,,,,,,,,,,True,True,no_key
46,,html-keyboard-response,46,474028,42,instrumental,"<div style=""font-size:120%; top:20%""></div>",,None,,,,,,,,,,,,,,,,,,True,True,no_key
47,992.0,audio-keyboard-response,47,475014,42,instrumental,sound/500,,81.0,acquisition,anything,neutral,False,11.0,1.0,700.0,300.0,q,500.0,,,,,,,,False,False,positive
48,,html-keyboard-response,48,476141,42,instrumental,"<font size=""100%"">neutral! so no change in bonus.</font>",,None,,,,,,,,,,,,,,,,,,True,True,no_key
49,,html-keyboard-response,49,477661,42,instrumental,"<div style=""font-size:120%; top:20%""></div>",,None,,,,,,,,,,,,,,,,,,True,True,no_key
50,571.0,audio-keyboard-response,50,478236,42,instrumental,sound/300,,81.0,acquisition,q,positive,True,12.0,1.0,700.0,300.0,q,300.0,True,,,,,,,False,False,positive
51,,html-keyboard-response,51,479358,42,instrumental,"<font size=""100%"" weight=bold> correct! + $0.04</font>",,None,,,,,,,,,,,,,,,,,,True,True,no_key
52,,html-keyboard-response,52,480873,42,instrumental,"<div style=""font-size:120%; top:20%""></div>",,None,,,,,,,,,,,,,,,,,,True,True,no_key
53,1091.0,audio-keyboard-response,53,481979,42,instrumental,sound/700,,80.0,acquisition,p,negative,True,13.0,1.0,700.0,300.0,q,700.0,True,,,,,,,False,False,negative
54,,html-keyboard-response,54,483110,42,instrumental,"<font size=""100%"" weight=bold> correct! - $0.00 </font>",,None,,,,,,,,,,,,,,,,,,True,True,no_key
55,,html-keyboard-response,55,484642,42,instrumental,"<div style=""font-size:120%; top:20%""></div>",,None,,,,,,,,,,,,,,,,,,True,True,no_key
56,659.0,audio-keyboard-response,56,485303,42,instrumental,sound/700,,80.0,acquisition,p,negative,True,14.0,1.0,700.0,300.0,q,700.0,True,,,,,,,False,False,negative
57,,html-keyboard-response,57,486416,42,instrumental,"<font size=""100%"" weight=bold> correct! - $0.00 </font>",,None,,,,,,,,,,,,,,,,,,True,True,no_key
58,,html-keyboard-response,58,487928,42,instrumental,"<div style=""font-size:120%; top:20%""></div>",,None,,,,,,,,,,,,,,,,,,True,True,no_key
59,,audio-keyboard-response,59,490442,42,instrumental,sound/700,,None,acquisition,anything,negative,False,,1.0,700.0,300.0,q,700.0,,,,,,,,False,False,no_key
60,,html-keyboard-response,60,491564,42,instrumental,"<font size=""100%"" weight=bold> incorrect! - $0.04</font>",,None,,,,,,,,,,,,,,,,,,True,True,no_key
61,,html-keyboard-response,61,493092,42,instrumental,"<div style=""font-size:120%; top:20%""></div>",,None,,,,,,,,,,,,,,,,,,True,True,no_key
62,619.0,audio-keyboard-response,62,495617,42,instrumental,sound/300,,81.0,acquisition,anything,positive,True,,1.0,700.0,300.0,q,300.0,,,,,,,,False,False,positive
63,,html-keyboard-response,63,496734,42,instrumental,"<font size=""100%"" weight=bold> correct! + $0.04</font>",,None,,,,,,,,,,,,,,,,,,True,True,no_key
64,,html-keyboard-response,64,498258,42,instrumental,"<div style=""font-size:120%; top:20%""></div>",,None,,,,,,,,,,,,,,,,,,True,True,no_key
65,752.0,audio-keyboard-response,65,499013,42,instrumental,sound/500,,81.0,acquisition,anything,neutral,False,15.0,1.0,700.0,300.0,q,500.0,,,,,,,,False,False,positive
66,,html-keyboard-response,66,500140,42,instrumental,"<font size=""100%"">neutral! so no change in bonus.</font>",,None,,,,,,,,,,,,,,,,,,True,True,no_key
67,,html-keyboard-response,67,501667,42,instrumental,"<div style=""font-size:120%; top:20%""></div>",,None,,,,,,,,,,,,,,,,,,True,True,no_key
68,549.0,audio-keyboard-response,68,502233,42,instrumental,sound/300,,81.0,acquisition,q,positive,True,16.0,1.0,700.0,300.0,q,300.0,True,,,,,,,False,False,positive
69,,html-keyboard-response,69,503355,42,instrumental,"<font size=""100%"" weight=bold> correct! + $0.04</font>",,None,,,,,,,,,,,,,,,,,,True,True,no_key
70,,html-keyboard-response,70,504875,42,instrumental,"<div style=""font-size:120%; top:20%""></div>",,None,,,,,,,,,,,,,,,,,,True,True,no_key
71,829.0,audio-keyboard-response,71,505716,42,instrumental,sound/500,,81.0,acquisition,anything,neutral,False,17.0,1.0,700.0,300.0,q,500.0,,,,,,,,False,False,positive
72,,html-keyboard-response,72,506841,42,instrumental,"<font size=""100%"">neutral! so no change in bonus.</font>",,None,,,,,,,,,,,,,,,,,,True,True,no_key
73,3958.0,html-keyboard-response,73,511328,42,instrumental,The total bonus amount of bonus you earned in this last period was $0.16.<br> Press any key to continue to the next step.,,74.0,,,,,,,,,,,,,,,,,,True,True,other_key
74,36909.0,instructions,74,548246,42,instrumental,,,None,,,,,,,,,,,,,,,,,,True,True,no_key
75,,html-keyboard-response,75,549177,42,instrumental,,,None,,,,,,,,,,,,,,,,,,True,True,no_key
76,989.0,audio-keyboard-response,76,550501,42,instrumental,sound/240,,81.0,generalization,space,positive,False,,1.0,700.0,300.0,q,,True,-60.0,0.0,240.0,,,,False,False,positive
77,,html-keyboard-response,77,551521,42,instrumental,,,None,,,,,,,,,,,,,,,,,,True,True,no_key
78,,html-keyboard-response,78,552038,42,instrumental,,,None,,,,,,,,,,,,,,,,,,True,True,no_key
79,2000.0,audio-keyboard-response,79,554053,42,instrumental,sound/320,,32.0,generalization,space,positive,True,,1.0,700.0,300.0,q,,False,20.0,1.0,320.0,,,,False,False,neutral
80,,html-keyboard-response,80,555072,42,instrumental,,,None,,,,,,,,,,,,,,,,,,True,True,no_key
81,,html-keyboard-response,81,555584,42,instrumental,,,None,,,,,,,,,,,,,,,,,,True,True,no_key
82,1091.0,audio-keyboard-response,82,556677,42,instrumental,sound/705,,80.0,generalization,space,negative,False,,1.0,700.0,300.0,q,,True,5.0,2.0,705.0,,,,False,False,negative
83,,html-keyboard-response,83,557699,42,instrumental,,,None,,,,,,,,,,,,,,,,,,True,True,no_key
84,,html-keyboard-response,84,558226,42,instrumental,,,None,,,,,,,,,,,,,,,,,,True,True,no_key
85,1429.0,audio-keyboard-response,85,559675,42,instrumental,sound/800,,32.0,generalization,space,negative,True,,1.0,700.0,300.0,q,,False,100.0,3.0,800.0,,,,False,False,neutral
86,,html-keyboard-response,86,560691,42,instrumental,,,None,,,,,,,,,,,,,,,,,,True,True,no_key
87,,html-keyboard-response,87,561208,42,instrumental,,,None,,,,,,,,,,,,,,,,,,True,True,no_key
88,1429.0,audio-keyboard-response,88,562654,42,instrumental,sound/700,,32.0,generalization,p,negative,False,,1.0,700.0,300.0,q,,False,0.0,4.0,,,,,False,False,neutral
89,,html-keyboard-response,89,563667,42,instrumental,,,None,,,,,,,,,,,,,,,,,,True,True,no_key
90,,html-keyboard-response,90,564183,42,instrumental,,,None,,,,,,,,,,,,,,,,,,True,True,no_key
91,851.0,audio-keyboard-response,91,565038,42,instrumental,sound/300,,81.0,generalization,q,positive,True,,1.0,700.0,300.0,q,,True,0.0,5.0,,,,,False,False,positive
92,,html-keyboard-response,92,566061,42,instrumental,,,None,,,,,,,,,,,,,,,,,,True,True,no_key
93,,html-keyboard-response,93,566580,42,instrumental,,,None,,,,,,,,,,,,,,,,,,True,True,no_key
94,771.0,audio-keyboard-response,94,567361,42,instrumental,sound/480,,32.0,generalization,space,control,True,,1.0,700.0,300.0,q,,,,6.0,,,,,False,False,neutral
95,,html-keyboard-response,95,568375,42,instrumental,,,None,,,,,,,,,,,,,,,,,,True,True,no_key
96,,html-keyboard-response,96,568889,42,instrumental,,,None,,,,,,,,,,,,,,,,,,True,True,no_key
97,661.0,audio-keyboard-response,97,569560,42,instrumental,sound/300,,81.0,generalization,q,positive,True,,1.0,700.0,300.0,q,,True,0.0,7.0,,,,,False,False,positive
98,,html-keyboard-response,98,570578,42,instrumental,,,None,,,,,,,,,,,,,,,,,,True,True,no_key
99,,html-keyboard-response,99,571090,42,instrumental,,,None,,,,,,,,,,,,,,,,,,True,True,no_key
100,1069.0,audio-keyboard-response,100,572167,42,instrumental,sound/900,,32.0,generalization,space,control,True,,1.0,700.0,300.0,q,,,,8.0,,,,,False,False,neutral
101,,html-keyboard-response,101,573188,42,instrumental,,,None,,,,,,,,,,,,,,,,,,True,True,no_key
102,,html-keyboard-response,102,573709,42,instrumental,,,None,,,,,,,,,,,,,,,,,,True,True,no_key
103,2099.0,audio-keyboard-response,103,575822,42,instrumental,sound/700,,80.0,generalization,p,negative,True,,1.0,700.0,300.0,q,,True,0.0,9.0,,,,,False,False,negative
104,,html-keyboard-response,104,576835,42,instrumental,,,None,,,,,,,,,,,,,,,,,,True,True,no_key
105,,html-keyboard-response,105,577358,42,instrumental,,,None,,,,,,,,,,,,,,,,,,True,True,no_key
106,1581.0,audio-keyboard-response,106,578949,42,instrumental,sound/880,,80.0,generalization,space,control,False,,1.0,700.0,300.0,q,,,,10.0,,,,,False,False,negative
107,,html-keyboard-response,107,579971,42,instrumental,,,None,,,,,,,,,,,,,,,,,,True,True,no_key
108,,html-keyboard-response,108,580492,42,instrumental,,,None,,,,,,,,,,,,,,,,,,True,True,no_key
109,1029.0,audio-keyboard-response,109,581532,42,instrumental,sound/300,,81.0,generalization,q,positive,True,,1.0,700.0,300.0,q,,True,0.0,11.0,,,,,False,False,positive
110,,html-keyboard-response,110,582559,42,instrumental,,,None,,,,,,,,,,,,,,,,,,True,True,no_key
111,,html-keyboard-response,111,583080,42,instrumental,,,None,,,,,,,,,,,,,,,,,,True,True,no_key
112,640.0,audio-keyboard-response,112,583734,42,instrumental,sound/280,,81.0,generalization,space,positive,False,,1.0,700.0,300.0,q,,True,-20.0,12.0,280.0,,,,False,False,positive
113,,html-keyboard-response,113,584749,42,instrumental,,,None,,,,,,,,,,,,,,,,,,True,True,no_key
114,,html-keyboard-response,114,585275,42,instrumental,,,None,,,,,,,,,,,,,,,,,,True,True,no_key
115,880.0,audio-keyboard-response,115,586165,42,instrumental,sound/700,,32.0,generalization,p,negative,False,,1.0,700.0,300.0,q,,False,0.0,13.0,,,,,False,False,neutral
116,,html-keyboard-response,116,587188,42,instrumental,,,None,,,,,,,,,,,,,,,,,,True,True,no_key
117,,html-keyboard-response,117,587707,42,instrumental,,,None,,,,,,,,,,,,,,,,,,True,True,no_key
118,760.0,audio-keyboard-response,118,588477,42,instrumental,sound/200,,32.0,generalization,space,positive,True,,1.0,700.0,300.0,q,,False,-100.0,14.0,200.0,,,,False,False,neutral
119,,html-keyboard-response,119,589493,42,instrumental,,,None,,,,,,,,,,,,,,,,,,True,True,no_key
120,,html-keyboard-response,120,590009,42,instrumental,,,None,,,,,,,,,,,,,,,,,,True,True,no_key
121,1021.0,audio-keyboard-response,121,591036,42,instrumental,sound/500,,32.0,generalization,space,control,True,,1.0,700.0,300.0,q,,,,15.0,,,,,False,False,neutral
122,,html-keyboard-response,122,592050,42,instrumental,,,None,,,,,,,,,,,,,,,,,,True,True,no_key
123,,html-keyboard-response,123,592572,42,instrumental,,,None,,,,,,,,,,,,,,,,,,True,True,no_key
124,811.0,audio-keyboard-response,124,593402,42,instrumental,sound/360,,32.0,generalization,space,positive,True,,1.0,700.0,300.0,q,,False,60.0,16.0,360.0,,,,False,False,neutral
125,,html-keyboard-response,125,594419,42,instrumental,,,None,,,,,,,,,,,,,,,,,,True,True,no_key
126,,html-keyboard-response,126,594943,42,instrumental,,,None,,,,,,,,,,,,,,,,,,True,True,no_key
127,1269.0,audio-keyboard-response,127,596233,42,instrumental,sound/640,,32.0,generalization,space,negative,True,,1.0,700.0,300.0,q,,False,-60.0,17.0,640.0,,,,False,False,neutral
128,,html-keyboard-response,128,597251,42,instrumental,,,None,,,,,,,,,,,,,,,,,,True,True,no_key
129,,html-keyboard-response,129,597770,42,instrumental,,,None,,,,,,,,,,,,,,,,,,True,True,no_key
130,640.0,audio-keyboard-response,130,598423,42,instrumental,sound/305,,81.0,generalization,space,positive,False,,1.0,700.0,300.0,q,,True,5.0,18.0,305.0,,,,False,False,positive
131,,html-keyboard-response,131,599440,42,instrumental,,,None,,,,,,,,,,,,,,,,,,True,True,no_key
132,,html-keyboard-response,132,599957,42,instrumental,,,None,,,,,,,,,,,,,,,,,,True,True,no_key
133,859.0,audio-keyboard-response,133,600823,42,instrumental,sound/400,,32.0,generalization,space,positive,True,,1.0,700.0,300.0,q,,False,100.0,19.0,400.0,,,,False,False,neutral
134,,html-keyboard-response,134,601838,42,instrumental,,,None,,,,,,,,,,,,,,,,,,True,True,no_key
135,,html-keyboard-response,135,602358,42,instrumental,,,None,,,,,,,,,,,,,,,,,,True,True,no_key
136,1200.0,audio-keyboard-response,136,603567,42,instrumental,sound/700,,80.0,generalization,p,negative,True,,1.0,700.0,300.0,q,,True,0.0,20.0,,,,,False,False,negative
137,,html-keyboard-response,137,604589,42,instrumental,,,None,,,,,,,,,,,,,,,,,,True,True,no_key
138,,html-keyboard-response,138,605110,42,instrumental,,,None,,,,,,,,,,,,,,,,,,True,True,no_key
139,1061.0,audio-keyboard-response,139,606194,42,instrumental,sound/600,,80.0,generalization,space,negative,False,,1.0,700.0,300.0,q,,True,-100.0,21.0,600.0,,,,False,False,negative
140,,html-keyboard-response,140,607220,42,instrumental,,,None,,,,,,,,,,,,,,,,,,True,True,no_key
141,,html-keyboard-response,141,607740,42,instrumental,,,None,,,,,,,,,,,,,,,,,,True,True,no_key
142,691.0,audio-keyboard-response,142,608461,42,instrumental,sound/295,,81.0,generalization,space,positive,False,,1.0,700.0,300.0,q,,True,-5.0,22.0,295.0,,,,False,False,positive
143,,html-keyboard-response,143,609488,42,instrumental,,,None,,,,,,,,,,,,,,,,,,True,True,no_key
144,,html-keyboard-response,144,610004,42,instrumental,,,None,,,,,,,,,,,,,,,,,,True,True,no_key
145,1541.0,audio-keyboard-response,145,611561,42,instrumental,sound/760,,80.0,generalization,space,negative,False,,1.0,700.0,300.0,q,,True,60.0,23.0,760.0,,,,False,False,negative
146,,html-keyboard-response,146,612588,42,instrumental,,,None,,,,,,,,,,,,,,,,,,True,True,no_key
147,,html-keyboard-response,147,613110,42,instrumental,,,None,,,,,,,,,,,,,,,,,,True,True,no_key
148,781.0,audio-keyboard-response,148,613911,42,instrumental,sound/520,,32.0,generalization,space,control,True,,1.0,700.0,300.0,q,,,,24.0,,,,,False,False,neutral
149,,html-keyboard-response,149,614941,42,instrumental,,,None,,,,,,,,,,,,,,,,,,True,True,no_key
150,,html-keyboard-response,150,615466,42,instrumental,,,None,,,,,,,,,,,,,,,,,,True,True,no_key
151,888.0,audio-keyboard-response,151,616367,42,instrumental,sound/680,,80.0,generalization,space,negative,False,,1.0,700.0,300.0,q,,True,-20.0,25.0,680.0,,,,False,False,negative
152,,html-keyboard-response,152,617385,42,instrumental,,,None,,,,,,,,,,,,,,,,,,True,True,no_key
153,,html-keyboard-response,153,617914,42,instrumental,,,None,,,,,,,,,,,,,,,,,,True,True,no_key
154,691.0,audio-keyboard-response,154,618615,42,instrumental,sound/920,,32.0,generalization,space,control,True,,1.0,700.0,300.0,q,,,,26.0,,,,,False,False,neutral
155,,html-keyboard-response,155,619646,42,instrumental,,,None,,,,,,,,,,,,,,,,,,True,True,no_key
156,,html-keyboard-response,156,620166,42,instrumental,,,None,,,,,,,,,,,,,,,,,,True,True,no_key
157,1029.0,audio-keyboard-response,157,621213,42,instrumental,sound/695,,80.0,generalization,space,negative,False,,1.0,700.0,300.0,q,,True,-5.0,27.0,695.0,,,,False,False,negative
158,,html-keyboard-response,158,622237,42,instrumental,,,None,,,,,,,,,,,,,,,,,,True,True,no_key
159,,html-keyboard-response,159,622765,42,instrumental,,,None,,,,,,,,,,,,,,,,,,True,True,no_key
160,880.0,audio-keyboard-response,160,623665,42,instrumental,sound/720,,80.0,generalization,space,negative,False,,1.0,700.0,300.0,q,,True,20.0,28.0,720.0,,,,False,False,negative
161,,html-keyboard-response,161,624689,42,instrumental,,,None,,,,,,,,,,,,,,,,,,True,True,no_key
162,,html-keyboard-response,162,625215,42,instrumental,,,None,,,,,,,,,,,,,,,,,,True,True,no_key
163,760.0,audio-keyboard-response,163,625984,42,instrumental,sound/300,,81.0,generalization,q,positive,True,,1.0,700.0,300.0,q,,True,0.0,29.0,,,,,False,False,positive
164,,html-keyboard-response,164,627003,42,instrumental,,,None,,,,,,,,,,,,,,,,,,True,True,no_key
165,2145.0,html-keyboard-response,165,629163,42,instrumental,bonus earned during this period: $0.68<br><br>Press any key to continue.,,75.0,,,,,,,,,,,,,,,,,,True,True,other_key
166,10958.0,instructions,166,640134,42,instrumental,,,None,,,,,,,,,,,,,,,,,,True,True,no_key
167,,html-keyboard-response,167,641567,42,instrumental,"<div style=""font-size:120%; top:20%""></div>",,None,,,,,,,,,,,,,,,,,,True,True,no_key
168,1480.0,audio-keyboard-response,168,643070,42,instrumental,sound/700,,80.0,acquisition,p,negative,True,18.0,2.0,700.0,300.0,q,700.0,True,,,,,,,False,False,negative
169,,html-keyboard-response,169,644194,42,instrumental,"<font size=""100%"" weight=bold> correct! - $0.00 </font>",,None,,,,,,,,,,,,,,,,,,True,True,no_key
170,,html-keyboard-response,170,645729,42,instrumental,"<div style=""font-size:120%; top:20%""></div>",,None,,,,,,,,,,,,,,,,,,True,True,no_key
171,,audio-keyboard-response,171,648259,42,instrumental,sound/500,,None,acquisition,anything,neutral,True,19.0,2.0,700.0,300.0,q,500.0,,,,,,,,False,False,no_key
172,,html-keyboard-response,172,649392,42,instrumental,"<font size=""100%"">neutral! so no change in bonus.</font>",,None,,,,,,,,,,,,,,,,,,True,True,no_key
173,,html-keyboard-response,173,650923,42,instrumental,"<div style=""font-size:120%; top:20%""></div>",,None,,,,,,,,,,,,,,,,,,True,True,no_key
174,611.0,audio-keyboard-response,174,651551,42,instrumental,sound/300,,81.0,acquisition,q,positive,True,20.0,2.0,700.0,300.0,q,300.0,True,,,,,,,False,False,positive
175,,html-keyboard-response,175,652685,42,instrumental,"<font size=""100%"" weight=bold> correct! + $0.04</font>",,None,,,,,,,,,,,,,,,,,,True,True,no_key
176,,html-keyboard-response,176,654227,42,instrumental,"<div style=""font-size:120%; top:20%""></div>",,None,,,,,,,,,,,,,,,,,,True,True,no_key
177,848.0,audio-keyboard-response,177,655094,42,instrumental,sound/700,,80.0,acquisition,p,negative,True,21.0,2.0,700.0,300.0,q,700.0,True,,,,,,,False,False,negative
178,,html-keyboard-response,178,656222,42,instrumental,"<font size=""100%"" weight=bold> correct! - $0.00 </font>",,None,,,,,,,,,,,,,,,,,,True,True,no_key
179,,html-keyboard-response,179,657749,42,instrumental,"<div style=""font-size:120%; top:20%""></div>",,None,,,,,,,,,,,,,,,,,,True,True,no_key
180,,audio-keyboard-response,180,660272,42,instrumental,sound/500,,None,acquisition,anything,neutral,True,22.0,2.0,700.0,300.0,q,500.0,,,,,,,,False,False,no_key
181,,html-keyboard-response,181,661399,42,instrumental,"<font size=""100%"">neutral! so no change in bonus.</font>",,None,,,,,,,,,,,,,,,,,,True,True,no_key
182,,html-keyboard-response,182,662936,42,instrumental,"<div style=""font-size:120%; top:20%""></div>",,None,,,,,,,,,,,,,,,,,,True,True,no_key
183,659.0,audio-keyboard-response,183,663610,42,instrumental,sound/300,,81.0,acquisition,q,positive,True,23.0,2.0,700.0,300.0,q,300.0,True,,,,,,,False,False,positive
184,,html-keyboard-response,184,664741,42,instrumental,"<font size=""100%"" weight=bold> correct! + $0.04</font>",,None,,,,,,,,,,,,,,,,,,True,True,no_key
185,,html-keyboard-response,185,666267,42,instrumental,"<div style=""font-size:120%; top:20%""></div>",,None,,,,,,,,,,,,,,,,,,True,True,no_key
186,,audio-keyboard-response,186,668791,42,instrumental,sound/700,,None,acquisition,anything,negative,False,,2.0,700.0,300.0,q,700.0,,,,,,,,False,False,no_key
187,,html-keyboard-response,187,669931,42,instrumental,"<font size=""100%"" weight=bold> incorrect! - $0.04</font>",,None,,,,,,,,,,,,,,,,,,True,True,no_key
188,,html-keyboard-response,188,671461,42,instrumental,"<div style=""font-size:120%; top:20%""></div>",,None,,,,,,,,,,,,,,,,,,True,True,no_key
189,,audio-keyboard-response,189,673991,42,instrumental,sound/300,,None,acquisition,anything,positive,True,,2.0,700.0,300.0,q,300.0,,,,,,,,False,False,no_key
190,,html-keyboard-response,190,675119,42,instrumental,"<font size=""100%"" weight=bold> correct! + $0.04</font>",,None,,,,,,,,,,,,,,,,,,True,True,no_key
191,,html-keyboard-response,191,676651,42,instrumental,"<div style=""font-size:120%; top:20%""></div>",,None,,,,,,,,,,,,,,,,,,True,True,no_key
192,699.0,audio-keyboard-response,192,677366,42,instrumental,sound/300,,81.0,acquisition,q,positive,True,24.0,2.0,700.0,300.0,q,300.0,True,,,,,,,False,False,positive
193,,html-keyboard-response,193,678496,42,instrumental,"<font size=""100%"" weight=bold> correct! + $0.04</font>",,None,,,,,,,,,,,,,,,,,,True,True,no_key
194,,html-keyboard-response,194,680032,42,instrumental,"<div style=""font-size:120%; top:20%""></div>",,None,,,,,,,,,,,,,,,,,,True,True,no_key
195,,audio-keyboard-response,195,682557,42,instrumental,sound/500,,None,acquisition,anything,neutral,True,25.0,2.0,700.0,300.0,q,500.0,,,,,,,,False,False,no_key
196,,html-keyboard-response,196,683693,42,instrumental,"<font size=""100%"">neutral! so no change in bonus.</font>",,None,,,,,,,,,,,,,,,,,,True,True,no_key
197,,html-keyboard-response,197,685227,42,instrumental,"<div style=""font-size:120%; top:20%""></div>",,None,,,,,,,,,,,,,,,,,,True,True,no_key
198,560.0,audio-keyboard-response,198,685806,42,instrumental,sound/700,,80.0,acquisition,p,negative,True,26.0,2.0,700.0,300.0,q,700.0,True,,,,,,,False,False,negative
199,,html-keyboard-response,199,686929,42,instrumental,"<font size=""100%"" weight=bold> correct! - $0.00 </font>",,None,,,,,,,,,,,,,,,,,,True,True,no_key
200,,html-keyboard-response,200,688452,42,instrumental,"<div style=""font-size:120%; top:20%""></div>",,None,,,,,,,,,,,,,,,,,,True,True,no_key
201,,audio-keyboard-response,201,690983,42,instrumental,sound/500,,None,acquisition,anything,neutral,True,27.0,2.0,700.0,300.0,q,500.0,,,,,,,,False,False,no_key
202,,html-keyboard-response,202,692113,42,instrumental,"<font size=""100%"">neutral! so no change in bonus.</font>",,None,,,,,,,,,,,,,,,,,,True,True,no_key
203,,html-keyboard-response,203,693650,42,instrumental,"<div style=""font-size:120%; top:20%""></div>",,None,,,,,,,,,,,,,,,,,,True,True,no_key
204,659.0,audio-keyboard-response,204,694333,42,instrumental,sound/300,,81.0,acquisition,q,positive,True,28.0,2.0,700.0,300.0,q,300.0,True,,,,,,,False,False,positive
205,,html-keyboard-response,205,695474,42,instrumental,"<font size=""100%"" weight=bold> correct! + $0.04</font>",,None,,,,,,,,,,,,,,,,,,True,True,no_key
206,,html-keyboard-response,206,697002,42,instrumental,"<div style=""font-size:120%; top:20%""></div>",,None,,,,,,,,,,,,,,,,,,True,True,no_key
207,501.0,audio-keyboard-response,207,697519,42,instrumental,sound/300,,81.0,acquisition,q,positive,True,29.0,2.0,700.0,300.0,q,300.0,True,,,,,,,False,False,positive
208,,html-keyboard-response,208,698643,42,instrumental,"<font size=""100%"" weight=bold> correct! + $0.04</font>",,None,,,,,,,,,,,,,,,,,,True,True,no_key
209,,html-keyboard-response,209,700169,42,instrumental,"<div style=""font-size:120%; top:20%""></div>",,None,,,,,,,,,,,,,,,,,,True,True,no_key
210,,audio-keyboard-response,210,702695,42,instrumental,sound/500,,None,acquisition,anything,neutral,True,30.0,2.0,700.0,300.0,q,500.0,,,,,,,,False,False,no_key
211,,html-keyboard-response,211,703818,42,instrumental,"<font size=""100%"">neutral! so no change in bonus.</font>",,None,,,,,,,,,,,,,,,,,,True,True,no_key
212,,html-keyboard-response,212,705352,42,instrumental,"<div style=""font-size:120%; top:20%""></div>",,None,,,,,,,,,,,,,,,,,,True,True,no_key
213,632.0,audio-keyboard-response,213,705992,42,instrumental,sound/300,,81.0,acquisition,q,positive,True,31.0,2.0,700.0,300.0,q,300.0,True,,,,,,,False,False,positive
214,,html-keyboard-response,214,707126,42,instrumental,"<font size=""100%"" weight=bold> correct! + $0.04</font>",,None,,,,,,,,,,,,,,,,,,True,True,no_key
215,,html-keyboard-response,215,708659,42,instrumental,"<div style=""font-size:120%; top:20%""></div>",,None,,,,,,,,,,,,,,,,,,True,True,no_key
216,531.0,audio-keyboard-response,216,709213,42,instrumental,sound/700,,80.0,acquisition,p,negative,True,32.0,2.0,700.0,300.0,q,700.0,True,,,,,,,False,False,negative
217,,html-keyboard-response,217,710355,42,instrumental,"<font size=""100%"" weight=bold> correct! - $0.00 </font>",,None,,,,,,,,,,,,,,,,,,True,True,no_key
218,,html-keyboard-response,218,711889,42,instrumental,"<div style=""font-size:120%; top:20%""></div>",,None,,,,,,,,,,,,,,,,,,True,True,no_key
219,,audio-keyboard-response,219,714423,42,instrumental,sound/500,,None,acquisition,anything,neutral,True,33.0,2.0,700.0,300.0,q,500.0,,,,,,,,False,False,no_key
220,,html-keyboard-response,220,715561,42,instrumental,"<font size=""100%"">neutral! so no change in bonus.</font>",,None,,,,,,,,,,,,,,,,,,True,True,no_key
221,,html-keyboard-response,221,717093,42,instrumental,"<div style=""font-size:120%; top:20%""></div>",,None,,,,,,,,,,,,,,,,,,True,True,no_key
222,1069.0,audio-keyboard-response,222,718187,42,instrumental,sound/700,,80.0,acquisition,p,negative,True,34.0,2.0,700.0,300.0,q,700.0,True,,,,,,,False,False,negative
223,,html-keyboard-response,223,719324,42,instrumental,"<font size=""100%"" weight=bold> correct! - $0.00 </font>",,None,,,,,,,,,,,,,,,,,,True,True,no_key
224,,html-keyboard-response,224,720863,42,instrumental,"<div style=""font-size:120%; top:20%""></div>",,None,,,,,,,,,,,,,,,,,,True,True,no_key
225,,audio-keyboard-response,225,723388,42,instrumental,sound/300,,None,acquisition,anything,positive,True,,2.0,700.0,300.0,q,300.0,,,,,,,,False,False,no_key
226,,html-keyboard-response,226,724533,42,instrumental,"<font size=""100%"" weight=bold> correct! + $0.04</font>",,None,,,,,,,,,,,,,,,,,,True,True,no_key
227,,html-keyboard-response,227,726085,42,instrumental,"<div style=""font-size:120%; top:20%""></div>",,None,,,,,,,,,,,,,,,,,,True,True,no_key
228,829.0,audio-keyboard-response,228,726940,42,instrumental,sound/700,,80.0,acquisition,p,negative,True,35.0,2.0,700.0,300.0,q,700.0,True,,,,,,,False,False,negative
229,,html-keyboard-response,229,728072,42,instrumental,"<font size=""100%"" weight=bold> correct! - $0.00 </font>",,None,,,,,,,,,,,,,,,,,,True,True,no_key
230,,html-keyboard-response,230,729611,42,instrumental,"<div style=""font-size:120%; top:20%""></div>",,None,,,,,,,,,,,,,,,,,,True,True,no_key
231,,audio-keyboard-response,231,732137,42,instrumental,sound/700,,None,acquisition,anything,negative,False,,2.0,700.0,300.0,q,700.0,,,,,,,,False,False,no_key
232,,html-keyboard-response,232,733268,42,instrumental,"<font size=""100%"" weight=bold> incorrect! - $0.04</font>",,None,,,,,,,,,,,,,,,,,,True,True,no_key
233,4208.0,html-keyboard-response,233,738010,42,instrumental,The total bonus amount of bonus you earned in this last period was $0.24.<br> Press any key to continue to the next step.,,32.0,,,,,,,,,,,,,,,,,,True,True,neutral
234,4693.0,instructions,234,742711,42,instrumental,,,None,,,,,,,,,,,,,,,,,,True,True,no_key
235,,html-keyboard-response,235,743633,42,instrumental,,,None,,,,,,,,,,,,,,,,,,True,True,no_key
236,1411.0,audio-keyboard-response,236,745067,42,instrumental,sound/600,,80.0,generalization,space,negative,False,,2.0,700.0,300.0,q,,True,-100.0,30.0,600.0,,,,False,False,negative
237,,html-keyboard-response,237,746094,42,instrumental,,,None,,,,,,,,,,,,,,,,,,True,True,no_key
238,,html-keyboard-response,238,746619,42,instrumental,,,None,,,,,,,,,,,,,,,,,,True,True,no_key
239,1621.0,audio-keyboard-response,239,748266,42,instrumental,sound/720,,80.0,generalization,space,negative,False,,2.0,700.0,300.0,q,,True,20.0,31.0,720.0,,,,False,False,negative
